Data from WindowProjectSample3_Transmission__1__00001.txt Node

Date: Sun May 04 09:36:01 EDT 2025
User: jessi
Spectrometer: SR400872
Trigger mode: 0
Integration Time (sec): 5.000700E-2
Scans to average: 20
Electric dark correction enabled: true
Nonlinearity correction enabled: true
Boxcar width: 0
XAxis mode: Wavelengths
Number of Pixels in Spectrum: 3648
>>>>>Begin Spectral Data<<<<<
184.909	-1985.0649
185.132	-296.32169
185.355	-607.08454
185.578	405.11732
185.801	-46.40734
186.024	-2323.34623
186.247	-2.49956
186.47	194.87198
186.693	-1088.06048
186.916	226.33957
187.139	-418.4551
187.362	163.66158
187.585	705.32104
187.808	66.03926
188.031	76.10049
188.254	610.48332
188.476	-2015.12698
188.699	196.13859
188.922	11.78717
189.145	116.34909
189.368	-12.58101
189.591	36.00833
189.813	56.70643
190.036	109.85236
190.259	52.74054
190.482	51.07831
190.705	126.64251
190.927	104.42942
191.15	106.93122
191.373	58.25092
191.595	67.68371
191.818	161.20712
192.041	41.48694
192.263	100.82932
192.486	67.45052
192.709	98.96656
192.931	102.54176
193.154	202.88002
193.377	93.98271
193.599	35.90974
193.822	46.89038
194.044	55.69665
194.267	51.68031
194.489	21.22215
194.712	80.7915
194.934	142.61968
195.157	-35.53657
195.379	76.07523
195.602	67.85578
195.824	95.99674
196.047	38.43365
196.269	143.81731
196.492	54.38861
196.714	75.53651
196.936	117.41937
197.159	108.7805
197.381	19.76376
197.604	32.16657
197.826	92.46731
198.048	76.4431
198.271	84.49993
198.493	94.11107
198.715	56.70004
198.938	40.45607
199.16	72.41953
199.382	144.03712
199.604	32.64593
199.827	61.38465
200.049	34.32354
200.271	48.98396
200.493	65.3348
200.715	118.43858
200.938	167.91755
201.16	271.38918
201.382	50.47648
201.604	86.96749
201.826	94.40101
202.048	113.68177
202.27	63.61173
202.492	94.12834
202.715	59.93832
202.937	81.26564
203.159	63.45637
203.381	52.70185
203.603	79.03646
203.825	-8.39953
204.047	68.27984
204.269	53.20017
204.491	70.7261
204.713	103.1921
204.935	126.78307
205.156	29.38605
205.378	75.46597
205.6	48.70597
205.822	154.70461
206.044	25.53436
206.266	53.12057
206.488	68.76482
206.71	154.19399
206.932	69.34115
207.153	116.67468
207.375	57.20198
207.597	150.26808
207.819	113.63918
208.041	140.0934
208.262	27.16334
208.484	32.25126
208.706	59.52349
208.927	42.34338
209.149	51.99489
209.371	115.58348
209.593	35.52375
209.814	33.80403
210.036	39.67161
210.258	48.38107
210.479	42.21071
210.701	55.40253
210.922	78.17469
211.144	48.91111
211.366	103.24637
211.587	61.62069
211.809	65.55903
212.03	44.1835
212.252	25.31716
212.473	48.57247
212.695	56.00091
212.916	41.18234
213.138	54.54703
213.359	61.38862
213.581	39.15553
213.802	30.09533
214.024	59.6155
214.245	53.79223
214.466	9.04168
214.688	76.92524
214.909	43.89289
215.131	72.31954
215.352	31.62513
215.573	147.73832
215.795	83.08695
216.016	100.74186
216.237	44.19169
216.459	63.36006
216.68	80.86725
216.901	89.29536
217.122	42.10271
217.344	70.24423
217.565	112.19429
217.786	115.52064
218.007	51.04843
218.228	25.25474
218.45	48.20122
218.671	21.03586
218.892	29.52688
219.113	46.42798
219.334	-3.99374
219.555	40.82878
219.776	68.17105
219.997	110.85399
220.219	42.14464
220.44	48.48271
220.661	28.20968
220.882	52.6723
221.103	36.88163
221.324	41.93955
221.545	71.23505
221.766	68.16106
221.987	18.56912
222.208	33.68977
222.429	99.57801
222.65	26.43749
222.87	44.86036
223.091	45.24655
223.312	12.74022
223.533	33.90403
223.754	55.94317
223.975	41.59135
224.196	23.19859
224.417	32.04806
224.637	7.42062
224.858	5.68038
225.079	14.37778
225.3	11.9127
225.521	97.7799
225.741	25.80528
225.962	25.7823
226.183	6.76459
226.404	24.44279
226.624	22.68699
226.845	19.43809
227.066	20.17838
227.286	18.53241
227.507	9.50689
227.728	4.93484
227.948	13.70141
228.169	1.45114
228.389	4.25376
228.61	3.44115
228.831	3.06557
229.051	2.32085
229.272	1.86382
229.492	3.34666
229.713	1.36477
229.933	1.78163
230.154	2.58792
230.374	2.77027
230.595	2.51173
230.815	0.93836
231.036	3.92425
231.256	-0.25413
231.477	4.95798
231.697	1.91254
231.917	1.91189
232.138	3.65658
232.358	6.31306
232.579	5.85122
232.799	-0.31653
233.019	5.25704
233.24	6.74007
233.46	3.60201
233.68	4.17818
233.901	2.63227
234.121	3.91444
234.341	2.1169
234.561	0.26986
234.782	2.70748
235.002	3.79813
235.222	-0.037
235.442	6.01774
235.662	2.49918
235.883	2.75179
236.103	4.11776
236.323	3.11404
236.543	2.22258
236.763	3.55083
236.983	1.41532
237.203	3.60195
237.423	5.32344
237.643	7.25932
237.864	5.57177
238.084	0.79658
238.304	1.31157
238.524	0.71167
238.744	1.73625
238.964	5.94144
239.184	3.73394
239.404	3.75344
239.624	2.08105
239.843	4.12118
240.063	2.48133
240.283	0.78811
240.503	1.71161
240.723	1.93626
240.943	0.82062
241.163	1.10497
241.383	0.78518
241.603	-0.21955
241.822	0.94612
242.042	0.22746
242.262	0.61941
242.482	0.98935
242.702	1.01193
242.921	0.49567
243.141	0.96258
243.361	0.78584
243.581	0.84504
243.8	0.60099
244.02	0.69148
244.24	0.75797
244.459	0.85788
244.679	1.65128
244.899	0.63917
245.118	0.54087
245.338	0.88878
245.558	1.28665
245.777	0.69685
245.997	1.05419
246.216	0.89823
246.436	0.66362
246.655	0.13814
246.875	0.21067
247.094	0.44661
247.314	0.22944
247.533	0.27379
247.753	0.3586
247.972	0.34535
248.192	0.11722
248.411	0.07792
248.631	0.24477
248.85	0.51596
249.07	0.27232
249.289	0.3226
249.508	0.10281
249.728	0.76732
249.947	0.4337
250.166	0.74571
250.386	0.435
250.605	0.15968
250.824	0.72197
251.044	0.94374
251.263	2.17853
251.482	1.2693
251.701	0.96269
251.921	-0.1571
252.14	0.36738
252.359	0.58396
252.578	0.70489
252.798	0.53131
253.017	0.90058
253.236	0.6668
253.455	0.54553
253.674	1.36531
253.893	0.47642
254.112	0.60179
254.331	1.19989
254.551	0.87932
254.77	0.55803
254.989	0.56617
255.208	0.55795
255.427	0.60293
255.646	0.71163
255.865	1.55118
256.084	1.08246
256.303	1.03268
256.522	0.6493
256.741	-0.12617
256.96	0.06613
257.179	0.53313
257.397	1.08277
257.616	0.53117
257.835	0.48249
258.054	1.52379
258.273	0.45437
258.492	1.23512
258.711	0.41337
258.93	0.43631
259.148	0.35918
259.367	0.24605
259.586	0.47782
259.805	0.09888
260.023	0.32285
260.242	0.38708
260.461	0.32804
260.68	0.17855
260.898	0.43929
261.117	0.1383
261.336	0.18378
261.554	0.40541
261.773	0.27807
261.992	-0.00185
262.21	0.37267
262.429	0.40179
262.648	0.74206
262.866	0.80808
263.085	0.64435
263.303	0.30276
263.522	0.49091
263.74	0.74488
263.959	1.36917
264.178	0.64663
264.396	0.15862
264.615	0.59189
264.833	1.03847
265.051	0.84311
265.27	0.99123
265.488	0.90512
265.707	0.54524
265.925	0.84639
266.144	0.4736
266.362	0.5731
266.58	0.51953
266.799	0.2773
267.017	0.56089
267.235	0.22041
267.454	0.25719
267.672	0.29175
267.89	0.58103
268.109	0.31778
268.327	0.44993
268.545	0.19407
268.763	0.25639
268.982	0.03364
269.2	0.42038
269.418	0.26197
269.636	0.29416
269.854	0.46438
270.073	0.37172
270.291	0.17451
270.509	0.34473
270.727	0.36527
270.945	0.4756
271.163	0.73151
271.381	0.19481
271.599	0.24666
271.817	0.68323
272.036	0.2361
272.254	0.24628
272.472	0.14301
272.69	0.14024
272.908	0.26466
273.126	0.4196
273.344	0.43224
273.562	0.17892
273.779	0.26992
273.997	0.27655
274.215	0.40834
274.433	0.383
274.651	0.3796
274.869	0.32129
275.087	0.33694
275.305	0.30088
275.523	0.30259
275.74	0.21961
275.958	0.372
276.176	0.6478
276.394	0.21195
276.612	0.27306
276.829	0.48502
277.047	0.40147
277.265	0.30916
277.483	0.39868
277.7	0.46905
277.918	0.49358
278.136	0.62001
278.353	0.20616
278.571	0.27627
278.789	0.28937
279.006	0.20048
279.224	0.08896
279.442	0.44745
279.659	0.42837
279.877	0.20683
280.094	0.64425
280.312	0.16546
280.529	0.29174
280.747	0.171
280.964	0.15282
281.182	0.62181
281.399	0.19095
281.617	0.36363
281.834	0.18011
282.052	0.23342
282.269	0.25687
282.487	0.11528
282.704	0.1859
282.921	0.24702
283.139	0.25807
283.356	0.32426
283.574	0.35684
283.791	0.25131
284.008	0.38107
284.226	0.25697
284.443	0.26875
284.66	0.31674
284.877	0.40288
285.095	0.10876
285.312	0.04614
285.529	0.06927
285.746	0.05105
285.964	0.18759
286.181	0.12252
286.398	0.15201
286.615	0.26575
286.832	0.24875
287.05	0.05311
287.267	0.20483
287.484	0.21238
287.701	0.32868
287.918	0.2125
288.135	0.30617
288.352	0.05733
288.569	0.20495
288.786	0.24518
289.003	0.1982
289.22	0.1838
289.437	0.05979
289.654	0.37093
289.871	0.25245
290.088	0.21599
290.305	0.17419
290.522	0.12813
290.739	0.15386
290.956	0.28542
291.173	0.3613
291.39	0.31993
291.607	0.18094
291.824	0.18535
292.04	0.06297
292.257	0.27881
292.474	0.26238
292.691	0.26507
292.908	0.13242
293.125	0.11025
293.341	0.28012
293.558	0.49457
293.775	0.16826
293.992	0.15648
294.208	0.06097
294.425	0.20659
294.642	0.23933
294.858	0.32429
295.075	0.04536
295.292	0.21012
295.508	0.17099
295.725	0.35604
295.942	0.19551
296.158	0.07327
296.375	0.17893
296.591	0.12227
296.808	0.17534
297.024	0.16638
297.241	0.19562
297.458	0.24828
297.674	0.02767
297.891	0.20564
298.107	0.17678
298.323	0.08279
298.54	0.2729
298.756	0.12261
298.973	0.06306
299.189	0.25864
299.406	0.09643
299.622	0.18672
299.838	0.25543
300.055	0.21536
300.271	0.05857
300.487	0.14966
300.704	0.04475
300.92	0.00316
301.136	0.29976
301.353	0.36417
301.569	0.20553
301.785	0.3139
302.001	0.3078
302.218	0.22991
302.434	0.2276
302.65	0.00844
302.866	0.16641
303.083	0.37335
303.299	0.34848
303.515	0.1099
303.731	0.22264
303.947	0.16467
304.163	0.19693
304.379	0.21242
304.595	0.15141
304.812	0.07223
305.028	0.17999
305.244	0.0771
305.46	0.1936
305.676	0.2311
305.892	0.32719
306.108	0.17906
306.324	0.16741
306.54	0.29521
306.756	0.12971
306.972	0.30483
307.187	0.0182
307.403	0.36596
307.619	0.13229
307.835	0.31727
308.051	0.39139
308.267	0.06181
308.483	0.25914
308.699	0.20354
308.914	0.23808
309.13	0.19953
309.346	0.14622
309.562	0.08428
309.778	0.02903
309.993	0.28767
310.209	0.09237
310.425	0.02868
310.641	0.17132
310.856	0.08685
311.072	0.0929
311.288	0.19322
311.503	0.25396
311.719	0.13496
311.935	0.04539
312.15	0.25029
312.366	0.19509
312.581	0.18759
312.797	0.18058
313.013	0.23991
313.228	0.1091
313.444	0.12849
313.659	0.11382
313.875	0.24972
314.09	0.20684
314.306	0.23486
314.521	0.31613
314.737	0.20331
314.952	0.2079
315.168	0.17451
315.383	0.20183
315.599	0.09887
315.814	0.0722
316.029	0.16182
316.245	0.03213
316.46	0.16473
316.675	0.30865
316.891	0.42813
317.106	0.48945
317.321	0.27833
317.537	0.31714
317.752	0.16208
317.967	0.27108
318.183	0.13704
318.398	0.20363
318.613	0.32723
318.828	0.16137
319.043	0.33445
319.259	0.11041
319.474	0.19254
319.689	0.31467
319.904	-0.0298
320.119	0.23802
320.334	0.3065
320.549	0.17399
320.765	0.33135
320.98	0.06328
321.195	0.15365
321.41	0.17903
321.625	0.21546
321.84	0.32171
322.055	0.30067
322.27	0.15366
322.485	0.17154
322.7	0.26413
322.915	0.29137
323.13	0.11626
323.345	0.37037
323.56	0.19035
323.775	0.23476
323.989	0.27414
324.204	0.28388
324.419	0.23858
324.634	0.16338
324.849	0.17914
325.064	0.51576
325.279	0.27606
325.493	0.21042
325.708	0.23454
325.923	0.15009
326.138	0.18322
326.352	0.33778
326.567	0.30593
326.782	0.11133
326.997	0.17224
327.211	0.26981
327.426	0.23323
327.641	0.12628
327.855	0.03155
328.07	0.18098
328.285	0.25445
328.499	0.17909
328.714	0.14317
328.928	0.19512
329.143	0.21695
329.358	0.2634
329.572	0.39531
329.787	0.21065
330.001	0.4756
330.216	0.02883
330.43	0.22626
330.645	0.25332
330.859	0.33089
331.074	0.11561
331.288	0.2791
331.503	0.19396
331.717	0.05325
331.931	0.17903
332.146	0.11769
332.36	0.35151
332.575	0.25981
332.789	0.22399
333.003	0.19413
333.218	0.16956
333.432	0.20024
333.646	0.2435
333.86	0.29074
334.075	0.35002
334.289	0.10624
334.503	0.14202
334.717	0.28438
334.932	0.08923
335.146	0.22165
335.36	0.14209
335.574	0.33477
335.788	0.20249
336.003	0.32851
336.217	0.26526
336.431	0.25868
336.645	0.06703
336.859	0.07393
337.073	0.12989
337.287	0.23535
337.501	0.12939
337.715	0.18716
337.929	0.17287
338.143	0.09995
338.357	0.13256
338.571	0.10033
338.785	0.23306
338.999	0.10569
339.213	0.19758
339.427	0.1026
339.641	0.25279
339.855	0.17177
340.069	0.17999
340.283	0.24921
340.497	0.40579
340.711	0.27515
340.924	0.1121
341.138	0.13622
341.352	0.03435
341.566	0.19873
341.78	0.12818
341.993	0.15101
342.207	0.03254
342.421	0.12613
342.635	0.10626
342.848	0.11178
343.062	0.02372
343.276	0.14831
343.49	0.40055
343.703	0.21071
343.917	0.21872
344.131	0.19687
344.344	0.04885
344.558	0.1603
344.771	0.0925
344.985	0.21965
345.199	0.24943
345.412	0.18273
345.626	0.23867
345.839	0.07907
346.053	0.1138
346.266	0.12931
346.48	0.27166
346.693	0.26619
346.907	0.21291
347.12	0.15953
347.334	0.18523
347.547	0.16885
347.76	0.14768
347.974	0.27589
348.187	0.18445
348.401	0.06032
348.614	0.13311
348.827	0.0521
349.041	0.23218
349.254	0.15872
349.467	0.1927
349.681	0.08384
349.894	0.16837
350.107	0.21606
350.32	0.31398
350.534	0.05934
350.747	0.21036
350.96	0.08208
351.173	0.1344
351.386	0.06599
351.6	0.18111
351.813	0.06445
352.026	0.25449
352.239	-0.00571
352.452	0.21532
352.665	0.14742
352.878	0.14942
353.092	0.29185
353.305	0.32202
353.518	0.05702
353.731	0.07543
353.944	0.22586
354.157	0.20107
354.37	0.11758
354.583	0.07117
354.796	0.04484
355.009	0.29058
355.222	0.09357
355.435	0.07812
355.647	0.23787
355.86	0.09501
356.073	0.12334
356.286	0.20195
356.499	0.20305
356.712	0.18062
356.925	0.29244
357.138	0.24822
357.35	0.09762
357.563	0.11891
357.776	0.15581
357.989	0.11557
358.201	0.16563
358.414	0.24015
358.627	0.27216
358.84	0.07886
359.052	0.08229
359.265	0.08586
359.478	0.26249
359.69	0.05154
359.903	0.15057
360.116	0.18405
360.328	0.01829
360.541	0.19779
360.753	0.05491
360.966	0.1201
361.179	0.10989
361.391	0.09431
361.604	0.07071
361.816	0.09695
362.029	0.01359
362.241	0.01373
362.454	0.06114
362.666	0.02259
362.879	0.1581
363.091	0.13842
363.304	0.11203
363.516	0.12816
363.728	0.04311
363.941	0.16249
364.153	0.07705
364.366	0.00769
364.578	0.03299
364.79	0.17859
365.003	0.10292
365.215	0.16442
365.427	0.07796
365.639	0.1823
365.852	0.1556
366.064	0.25216
366.276	0.13582
366.488	0.19761
366.701	0.08164
366.913	0.18624
367.125	0.1141
367.337	0.11621
367.549	0.08494
367.762	0.15944
367.974	0.15397
368.186	0.11909
368.398	0.14241
368.61	0.14274
368.822	0.15328
369.034	0.16296
369.246	0.14546
369.458	0.31734
369.67	0.0757
369.882	0.24677
370.094	0.01528
370.306	0.31341
370.518	0.0959
370.73	0.11268
370.942	0.12158
371.154	0.08866
371.366	0.13371
371.578	0.14442
371.79	0.0816
372.002	0.26753
372.214	0.2302
372.425	0.15884
372.637	0.19255
372.849	0.2648
373.061	0.04685
373.273	0.0991
373.484	0.16985
373.696	0.21452
373.908	-0.05088
374.12	0.16903
374.331	0.1942
374.543	0.03273
374.755	0.06869
374.967	0.09252
375.178	0.18327
375.39	0.07312
375.602	0.16748
375.813	0.04025
376.025	0.07207
376.236	0.1005
376.448	0.18481
376.66	0.0656
376.871	0.14613
377.083	0.11438
377.294	0.23621
377.506	0.04861
377.717	0.21719
377.929	0.14115
378.14	0.06926
378.352	0.14085
378.563	0.10874
378.775	0.21335
378.986	0.15724
379.197	0.06379
379.409	0.14707
379.62	0.19809
379.832	0.13557
380.043	0.1212
380.254	0.15577
380.466	0.11879
380.677	0.27312
380.888	0.29419
381.1	0.2834
381.311	0.31719
381.522	0.07794
381.733	0.27606
381.945	0.08104
382.156	0.14007
382.367	0.09759
382.578	0.29353
382.789	0.34291
383.001	0.09524
383.212	0.20415
383.423	0.25887
383.634	0.25725
383.845	0.11881
384.056	0.08597
384.267	0.10632
384.478	0.0797
384.69	-0.00937
384.901	0.11875
385.112	0.14636
385.323	0.20289
385.534	0.15731
385.745	0.18485
385.956	0.2123
386.167	0.10534
386.378	0.1311
386.588	0.01802
386.799	0.0906
387.01	-0.02745
387.221	0.20089
387.432	0.10133
387.643	0.26037
387.854	0.15893
388.065	0.06669
388.275	0.08657
388.486	0.08806
388.697	0.11113
388.908	0.13151
389.119	0.18417
389.329	0.2255
389.54	0.12493
389.751	0.15017
389.962	0.24699
390.172	0.14581
390.383	0.10676
390.594	0.02043
390.804	0.09626
391.015	0.07635
391.226	0.12668
391.436	0.09743
391.647	0.1315
391.858	0.13764
392.068	0.08719
392.279	0.0603
392.489	0.12752
392.7	0.14635
392.91	0.04491
393.121	0.07159
393.331	0.14105
393.542	0.20523
393.752	0.14047
393.963	0.13417
394.173	0.10803
394.384	0.134
394.594	0.0963
394.804	-0.02284
395.015	0.16421
395.225	0.13777
395.436	0.03111
395.646	0.18818
395.856	0.1322
396.067	0.0385
396.277	0.17826
396.487	0.04075
396.697	0.10071
396.908	0.25763
397.118	0.07612
397.328	0.09127
397.538	0.18554
397.749	0.05717
397.959	0.20707
398.169	0.22018
398.379	0.0231
398.589	0.14659
398.8	0.07756
399.01	0.05901
399.22	0.14105
399.43	0.27716
399.64	0.07021
399.85	0.18756
400.06	0.08494
400.27	-0.00172
400.48	0.15751
400.69	0.22792
400.9	0.16245
401.11	0.13885
401.32	0.18285
401.53	0.08405
401.74	0.2213
401.95	0.18285
402.16	0.08195
402.37	0.0685
402.58	0.12574
402.79	0.13432
403	0.15122
403.209	0.10068
403.419	0.16602
403.629	0.11995
403.839	0.15188
404.049	0.18824
404.258	0.09418
404.468	0.00061
404.678	0.15997
404.888	0.12482
405.097	0.00188
405.307	0.1923
405.517	0.19351
405.727	0.15028
405.936	0.09482
406.146	0.14878
406.356	0.22411
406.565	0.10456
406.775	0.07909
406.984	0.06385
407.194	0.21933
407.404	0.15059
407.613	0.09204
407.823	0.1857
408.032	0.20441
408.242	0.23202
408.451	0.12399
408.661	0.13387
408.87	0.2052
409.08	0.12073
409.289	0.16079
409.499	0.15113
409.708	0.13433
409.918	-0.01831
410.127	0.12014
410.336	0.27534
410.546	0.16184
410.755	0.14214
410.964	0.08602
411.174	0.13574
411.383	0.10699
411.592	0.14896
411.802	0.03343
412.011	0.16206
412.22	0.15768
412.429	0.23763
412.639	0.22349
412.848	0.23472
413.057	0.20655
413.266	0.19078
413.475	0.19552
413.685	0.1124
413.894	0.16427
414.103	0.24121
414.312	0.17653
414.521	0.17911
414.73	0.13753
414.939	0.31304
415.148	0.13035
415.357	0.12463
415.566	0.10066
415.776	0.07632
415.985	0.05337
416.194	0.21562
416.403	0.22968
416.611	0.05251
416.82	0.03926
417.029	0.09724
417.238	0.06019
417.447	0.08584
417.656	0.06129
417.865	0.03378
418.074	0.04924
418.283	0.08543
418.492	0.14525
418.7	0.15597
418.909	0.21339
419.118	0.11406
419.327	0.13591
419.536	0.09112
419.744	0.05502
419.953	0.13457
420.162	0.13424
420.371	0.02587
420.579	0.0696
420.788	0.09522
420.997	0.12009
421.205	0.09841
421.414	0.13625
421.623	0.06131
421.831	0.05125
422.04	0.1575
422.249	0.05779
422.457	0.11565
422.666	0.08785
422.874	0.17993
423.083	0.16596
423.291	0.0799
423.5	0.05578
423.708	0.12034
423.917	0.12436
424.125	0.10879
424.334	0.0531
424.542	0.25212
424.751	0.17399
424.959	0.12168
425.167	0.1473
425.376	0.16219
425.584	0.10544
425.793	0.12344
426.001	0.03316
426.209	0.155
426.418	0.08321
426.626	0.09854
426.834	0.01017
427.042	0.05324
427.251	0.08221
427.459	0.14213
427.667	0.10678
427.875	-0.00059
428.084	0.1186
428.292	0.14709
428.5	0.13037
428.708	0.064
428.916	0.05283
429.124	0.14957
429.333	0.15202
429.541	0.00386
429.749	0.11064
429.957	0.11347
430.165	0.2074
430.373	0.04543
430.581	0.09649
430.789	0.1656
430.997	0.03399
431.205	0.07385
431.413	0.08296
431.621	0.09086
431.829	0.11809
432.037	0.07349
432.245	0.18458
432.453	0.09546
432.661	0.06693
432.869	0.17726
433.076	0.04739
433.284	0.07501
433.492	0.12041
433.7	0.16127
433.908	0.0325
434.116	0.09608
434.323	0.04496
434.531	0.10169
434.739	0.09867
434.947	0.17533
435.154	0.13715
435.362	0.09747
435.57	0.05822
435.778	0.08243
435.985	0.14144
436.193	0.03395
436.401	0.1469
436.608	0.13102
436.816	0.10659
437.023	0.22793
437.231	0.21756
437.439	0.12908
437.646	0.11258
437.854	0.13067
438.061	0.16111
438.269	0.08602
438.476	0.15809
438.684	0.10152
438.891	0.06841
439.099	0.0663
439.306	0.03788
439.514	0.02261
439.721	0.10017
439.929	0.06943
440.136	0.10527
440.343	0.11423
440.551	0.06214
440.758	0.26666
440.965	0.13759
441.173	0.08417
441.38	0.05762
441.587	0.08694
441.795	0.06926
442.002	0.13829
442.209	0.11645
442.416	0.12182
442.624	0.0905
442.831	0.11732
443.038	0.06274
443.245	0.07298
443.452	0.08899
443.66	0.13038
443.867	0.04974
444.074	0.04448
444.281	0.07833
444.488	0.15193
444.695	0.07432
444.902	0.07973
445.109	0.15541
445.316	0.10736
445.523	0.04346
445.73	0.07739
445.937	0.10335
446.144	0.14872
446.351	0.11231
446.558	-0.0188
446.765	0.19742
446.972	0.17976
447.179	0.09414
447.386	0.22745
447.593	0.05033
447.8	0.13709
448.007	0.09187
448.214	0.12982
448.42	0.04661
448.627	0.14023
448.834	0.11939
449.041	0.10096
449.248	0.08285
449.454	0.12328
449.661	0.21957
449.868	0.11975
450.075	0.08896
450.281	-0.00733
450.488	0.04024
450.695	0.07077
450.901	0.09503
451.108	0.09372
451.315	0.09742
451.521	0.12011
451.728	0.18353
451.935	0.07097
452.141	0.06247
452.348	0.08426
452.554	0.08226
452.761	0.08383
452.967	0.16242
453.174	0.09524
453.38	0.1258
453.587	-0.0044
453.793	0.12498
454	0.18489
454.206	0.24077
454.413	0.1314
454.619	0.09782
454.825	0.0345
455.032	0.15832
455.238	0.1398
455.445	0.04572
455.651	0.10257
455.857	0.01283
456.064	0.12068
456.27	0.04762
456.476	0.1223
456.682	0.08951
456.889	0.20975
457.095	0.14282
457.301	0.21281
457.507	0.0448
457.714	0.16545
457.92	0.05645
458.126	0.09544
458.332	0.10739
458.538	0.0419
458.744	0.07244
458.951	0.08635
459.157	0.24727
459.363	0.11281
459.569	0.11524
459.775	0.12788
459.981	0.0174
460.187	0.09531
460.393	0.08099
460.599	0.18688
460.805	0.0804
461.011	0.12863
461.217	0.15804
461.423	0.16605
461.629	0.08172
461.835	0.12642
462.041	0.10848
462.247	0.20085
462.453	0.08193
462.658	0.1727
462.864	0.10747
463.07	0.07205
463.276	0.21171
463.482	0.14731
463.688	0.23292
463.893	0.11762
464.099	0.13481
464.305	0.21247
464.511	0.12179
464.716	0.17149
464.922	0.08751
465.128	0.06711
465.333	0.21961
465.539	0.19105
465.745	0.09495
465.95	0.12681
466.156	0.28876
466.362	0.19085
466.567	0.13837
466.773	0.08078
466.978	0.19827
467.184	0.04497
467.389	0.01153
467.595	0.14305
467.8	0.0808
468.006	0.28841
468.211	0.1873
468.417	0.08243
468.622	0.16942
468.828	0.17618
469.033	0.1531
469.239	0.27563
469.444	0.10446
469.649	0.20846
469.855	0.09618
470.06	0.1198
470.266	0.05102
470.471	0.17628
470.676	0.14136
470.881	0.04705
471.087	0.08415
471.292	0.36024
471.497	0.12344
471.703	0.09269
471.908	0.08142
472.113	0.05972
472.318	0.22572
472.523	0.12396
472.729	0.17583
472.934	0.17803
473.139	0.12461
473.344	0.17962
473.549	0.2129
473.754	0.04424
473.959	0.27923
474.164	0.09702
474.369	0.17148
474.575	0.18346
474.78	0.16693
474.985	0.12537
475.19	0.02637
475.395	0.12512
475.6	0.09716
475.804	0.17603
476.009	0.16897
476.214	0.0436
476.419	0.09938
476.624	0.10511
476.829	0.08889
477.034	0.1143
477.239	0.10218
477.444	0.15027
477.648	0.10282
477.853	0.15646
478.058	0.06394
478.263	0.10484
478.468	0.09243
478.672	0.11655
478.877	0.16723
479.082	0.25567
479.287	0.11161
479.491	0.16893
479.696	0.04931
479.901	0.18576
480.105	0.14097
480.31	0.08595
480.515	0.08595
480.719	0.22445
480.924	0.08644
481.128	0.05636
481.333	0.14959
481.538	0.09322
481.742	0.09782
481.947	0.13181
482.151	0.09933
482.356	0.08903
482.56	0.13257
482.765	0.12821
482.969	0.16571
483.174	0.21749
483.378	0.16546
483.582	0.17834
483.787	0.25211
483.991	0.23363
484.196	0.21624
484.4	0.25445
484.604	0.27394
484.809	0.14671
485.013	0.24526
485.217	0.15642
485.422	0.13031
485.626	0.10561
485.83	0.13198
486.034	0.15198
486.239	0.13893
486.443	0.101
486.647	0.12034
486.851	0.18068
487.055	0.20177
487.26	0.09464
487.464	0.20018
487.668	0.08032
487.872	0.06843
488.076	0.14646
488.28	0.17315
488.484	0.14077
488.688	0.16052
488.892	0.17424
489.096	0.16169
489.3	0.15884
489.504	0.09146
489.708	0.14763
489.912	0.1555
490.116	0.21482
490.32	0.09129
490.524	0.14445
490.728	0.14989
490.932	0.15474
491.136	0.09824
491.34	0.1893
491.544	0.17885
491.748	0.09054
491.951	0.16805
492.155	0.08225
492.359	0.1329
492.563	0.12603
492.767	0.06332
492.97	0.18896
493.174	0.07672
493.378	0.176
493.582	0.07899
493.785	0.11561
493.989	0.13198
494.193	0.14868
494.396	0.14191
494.6	0.1285
494.804	0.13298
495.007	0.08406
495.211	0.09227
495.414	0.12388
495.618	0.09679
495.822	0.17358
496.025	0.09723
496.229	0.15366
496.432	0.0801
496.636	0.11003
496.839	0.11485
497.043	0.26129
497.246	0.11878
497.45	0.11245
497.653	0.11876
497.856	0.13197
498.06	-0.00903
498.263	0.12727
498.467	0.07842
498.67	0.212
498.873	0.18457
499.077	0.12246
499.28	0.10442
499.483	0.12801
499.686	0.1906
499.89	0.12829
500.093	0.14287
500.296	0.10558
500.499	0.16345
500.703	0.10374
500.906	0.14546
501.109	0.2144
501.312	0.13712
501.515	0.11112
501.719	0.1966
501.922	0.34887
502.125	0.17051
502.328	0.17164
502.531	0.05868
502.734	0.12505
502.937	0.01651
503.14	0.16517
503.343	-0.01462
503.546	0.10466
503.749	0.13188
503.952	0.07483
504.155	0.15222
504.358	0.19373
504.561	0.1301
504.764	0.10987
504.967	0.0894
505.17	0.11818
505.373	0.21845
505.576	0.11919
505.778	0.14456
505.981	0.05809
506.184	0.10543
506.387	0.0568
506.59	0.25533
506.793	0.15081
506.995	0.16063
507.198	0.04385
507.401	0.10742
507.604	0.1179
507.806	0.09734
508.009	0.07909
508.212	0.12238
508.414	0.1084
508.617	0.07362
508.82	0.09248
509.022	0.20899
509.225	0.11617
509.427	0.00258
509.63	0.17499
509.833	0.15528
510.035	0.12095
510.238	0.02287
510.44	0.2426
510.643	-0.0315
510.845	0.23343
511.048	0.13272
511.25	0.10878
511.453	0.15958
511.655	0.15729
511.858	0.09744
512.06	0.16129
512.262	0.14747
512.465	0.16797
512.667	0.10341
512.869	0.07089
513.072	0.14867
513.274	0.1956
513.476	0.17252
513.679	0.15786
513.881	0.09483
514.083	0.15329
514.286	0.13618
514.488	0.10619
514.69	0.06304
514.892	0.06026
515.094	0.14921
515.297	0.13785
515.499	0.12502
515.701	0.03615
515.903	0.23734
516.105	0.22887
516.307	0.22052
516.509	-0.00086
516.711	0.10214
516.913	0.15432
517.116	0.09579
517.318	0.07106
517.52	0.19274
517.722	0.12781
517.924	0.04137
518.126	0.07376
518.328	0.09187
518.529	0.13675
518.731	0.26543
518.933	0.05514
519.135	0.12837
519.337	0.18386
519.539	0.15085
519.741	0.04482
519.943	0.12659
520.145	0.14756
520.346	0.14668
520.548	0.0632
520.75	0.20125
520.952	0.13479
521.153	0.17823
521.355	0.14299
521.557	0.087
521.759	0.15091
521.96	0.10191
522.162	0.09794
522.364	0.14229
522.565	0.02063
522.767	0.17464
522.969	0.13737
523.17	0.11182
523.372	0.16947
523.573	0.0693
523.775	0.08323
523.977	0.08455
524.178	0.24296
524.38	0.08244
524.581	0.13771
524.783	0.10412
524.984	0.18375
525.186	0.10586
525.387	0.17165
525.589	0.12947
525.79	0.12896
525.991	0.08451
526.193	0.14227
526.394	0.02352
526.596	0.13173
526.797	0.12578
526.998	0.09799
527.2	0.04807
527.401	0.17525
527.602	0.11306
527.803	0.20461
528.005	0.16211
528.206	0.20419
528.407	0.22644
528.608	0.15064
528.81	0.1652
529.011	0.13809
529.212	0.21005
529.413	0.1442
529.614	0.17533
529.815	0.16044
530.017	0.1898
530.218	0.12746
530.419	0.09548
530.62	0.13759
530.821	0.08903
531.022	0.07563
531.223	0.11766
531.424	0.15642
531.625	0.1452
531.826	0.16236
532.027	0.10954
532.228	0.18428
532.429	0.15106
532.63	0.10586
532.831	0.14152
533.032	0.1488
533.233	0.19516
533.433	0.15541
533.634	0.1801
533.835	0.17257
534.036	0.08576
534.237	0.14202
534.438	0.15399
534.638	0.07027
534.839	0.08439
535.04	0.13173
535.241	0.09921
535.441	0.15699
535.642	0.13636
535.843	0.06633
536.043	0.08995
536.244	0.09774
536.445	0.15332
536.645	0.14043
536.846	0.12972
537.047	0.25939
537.247	0.0433
537.448	0.10796
537.648	0.15958
537.849	0.1004
538.049	0.13486
538.25	0.20374
538.451	0.10863
538.651	0.07495
538.851	0.17861
539.052	0.12635
539.252	0.18255
539.453	0.1045
539.653	0.09172
539.854	0.14439
540.054	0.12101
540.254	0.1483
540.455	0.22527
540.655	0.07747
540.855	0.15123
541.056	0.20059
541.256	0.12218
541.456	0.21139
541.657	0.15165
541.857	0.18521
542.057	0.07094
542.257	0.09933
542.458	0.21615
542.658	0.24041
542.858	0.05578
543.058	0.18211
543.258	0.15474
543.458	0.08568
543.659	0.0325
543.859	0.10826
544.059	0.14973
544.259	0.10506
544.459	0.21682
544.659	0.11037
544.859	0.15869
545.059	0.08253
545.259	0.14525
545.459	0.13502
545.659	0.15049
545.859	0.13906
546.059	0.1499
546.259	0.10328
546.459	0.04679
546.659	0.07797
546.859	0.1287
547.059	0.10726
547.258	0.149
547.458	0.12355
547.658	0.07136
547.858	0.09491
548.058	0.20426
548.258	0.19346
548.457	0.15574
548.657	0.29345
548.857	0.16396
549.057	0.25481
549.256	0.20687
549.456	0.26004
549.656	0.08585
549.855	0.34748
550.055	0.18857
550.255	0.28164
550.454	0.26774
550.654	0.23056
550.853	0.29875
551.053	0.28781
551.253	0.20079
551.452	0.21871
551.652	0.11555
551.851	0.11889
552.051	0.17643
552.25	0.10865
552.45	0.10341
552.649	0.17523
552.849	0.15359
553.048	0.2021
553.248	0.24157
553.447	0.07383
553.646	0.18546
553.846	0.27797
554.045	0.29174
554.244	0.05981
554.444	0.31008
554.643	0.13917
554.842	0.30129
555.042	0.29196
555.241	0.10798
555.44	0.14236
555.64	0.18297
555.839	0.29799
556.038	0.28393
556.237	0.21203
556.436	0.18107
556.636	0.1574
556.835	0.12236
557.034	0.19555
557.233	0.23927
557.432	0.19229
557.631	0.28377
557.83	0.20488
558.029	0.13985
558.228	0.21953
558.427	-0.0091
558.626	0.17105
558.825	0.12413
559.024	0.21679
559.223	0.37186
559.422	0.19021
559.621	0.35203
559.82	-0.01575
560.019	0.24448
560.218	0.07738
560.417	0.01319
560.616	0.09695
560.815	0.37325
561.014	0.08489
561.212	0.21399
561.411	0.08271
561.61	0.12237
561.809	0.13638
562.008	0.30227
562.206	0.13168
562.405	0.30253
562.604	0.17502
562.803	0.28568
563.001	0.30251
563.2	0.08331
563.399	0.23595
563.597	0.11321
563.796	0.20441
563.995	0.14414
564.193	0.23555
564.392	0.1272
564.59	0.30731
564.789	0.0886
564.988	0.14956
565.186	0.20983
565.385	0.11679
565.583	0.06226
565.782	0.16721
565.98	0.13354
566.179	0.2094
566.377	0.00696
566.575	0.08917
566.774	0.17296
566.972	0.18108
567.171	0.22869
567.369	0.35739
567.567	0.1832
567.766	0.08101
567.964	0.0943
568.162	0.20824
568.361	0.28001
568.559	0.22765
568.757	0.21963
568.956	0.21845
569.154	0.16143
569.352	0.26743
569.55	0.21926
569.748	0.20373
569.947	0.17113
570.145	0.13544
570.343	0.19862
570.541	0.22545
570.739	0.11389
570.937	0.18108
571.135	0.17055
571.333	0.36486
571.532	0.37326
571.73	0.14999
571.928	0.24023
572.126	0.2209
572.324	0.15521
572.522	0.21509
572.72	0.3219
572.918	0.18823
573.116	0.16579
573.313	0.16393
573.511	0.16808
573.709	0.16152
573.907	0.24191
574.105	0.20042
574.303	-0.01431
574.501	0.10452
574.699	0.13662
574.896	0.17228
575.094	0.13564
575.292	0.11841
575.49	0.23976
575.688	0.24201
575.885	0.33617
576.083	0.31838
576.281	0.12373
576.478	0.16148
576.676	0.27578
576.874	0.08269
577.071	0.17829
577.269	0.35892
577.467	0.19877
577.664	0.26625
577.862	0.2008
578.059	0.17941
578.257	0.2479
578.455	0.24005
578.652	0.19241
578.85	0.17824
579.047	0.23597
579.245	0.26493
579.442	0.18803
579.64	0.15924
579.837	0.06479
580.034	0.45213
580.232	0.2011
580.429	0.12348
580.627	0.29783
580.824	0.46096
581.021	0.25688
581.219	0.09429
581.416	0.09659
581.613	0.35566
581.811	0.35561
582.008	0.21399
582.205	0.16055
582.402	0.25479
582.6	0.41643
582.797	0.28343
582.994	0.40594
583.191	0.28523
583.388	0.31573
583.586	0.22726
583.783	0.27886
583.98	0.12816
584.177	0.29522
584.374	-0.00546
584.571	0.27037
584.768	0.2125
584.965	0.31135
585.162	0.24626
585.359	0.40063
585.556	0.1937
585.753	0.2528
585.95	0.16853
586.147	0.15894
586.344	0.14577
586.541	0.15147
586.738	0.08981
586.935	0.22901
587.132	0.23263
587.329	0.37636
587.526	0.20162
587.722	0.60168
587.919	0.07716
588.116	0.28192
588.313	0.30555
588.51	0.36454
588.706	0.30961
588.903	0.34576
589.1	0.15389
589.297	0.44559
589.493	0.17434
589.69	0.28402
589.887	0.24245
590.083	0.09021
590.28	0.12813
590.477	0.26063
590.673	0.15943
590.87	0.31185
591.067	0.14927
591.263	0.29493
591.46	0.10803
591.656	0.24389
591.853	0.42989
592.049	0.2609
592.246	0.22663
592.442	0.33909
592.639	0.34508
592.835	0.26906
593.032	0.3193
593.228	-0.02569
593.425	0.163
593.621	0.14116
593.817	0.2719
594.014	0.21519
594.21	0.23035
594.406	0.20989
594.603	0.30755
594.799	0.19873
594.995	-0.07382
595.192	0.26947
595.388	0.28986
595.584	0.17344
595.78	0.13624
595.977	0.45268
596.173	0.36347
596.369	0.184
596.565	0.15499
596.761	0.09137
596.957	0.28229
597.154	0.0786
597.35	0.13292
597.546	0.13174
597.742	0.18176
597.938	0.28343
598.134	0.07024
598.33	0.25451
598.526	0.33325
598.722	0.42822
598.918	0.26967
599.114	0.36687
599.31	0.18136
599.506	0.3125
599.702	0.19056
599.898	0.28088
600.094	0.36915
600.29	0.26861
600.485	0.35232
600.681	0.27892
600.877	0.40353
601.073	0.27637
601.269	0.47968
601.465	0.29494
601.66	0.17136
601.856	0.14105
602.052	0.3079
602.248	0.28719
602.443	0.04584
602.639	0.09819
602.835	0.1597
603.03	0.14735
603.226	0.38883
603.422	0.1733
603.617	0.23795
603.813	0.12701
604.009	0.13289
604.204	0.29262
604.4	0.02721
604.595	0.19438
604.791	0.18497
604.986	0.17922
605.182	0.07609
605.377	0.06077
605.573	0.0996
605.768	0.22987
605.964	0.22826
606.159	0.35248
606.355	0.38775
606.55	0.28279
606.746	0.29757
606.941	0.3446
607.136	0.30069
607.332	0.50489
607.527	0.03423
607.722	0.26424
607.918	0.25817
608.113	0.15372
608.308	0.32463
608.503	0.24412
608.699	0.20869
608.894	0.17668
609.089	0.19169
609.284	0.22101
609.479	0.23444
609.675	0.28454
609.87	0.03565
610.065	0.25641
610.26	0.32822
610.455	0.25048
610.65	0.11478
610.845	0.26877
611.04	0.24716
611.235	0.24927
611.43	0.21119
611.625	0.16973
611.82	0.31945
612.015	0.15138
612.21	0.37928
612.405	0.14433
612.6	0.52951
612.795	0.48064
612.99	0.38042
613.185	0.17166
613.38	0.24544
613.575	0.3947
613.77	0.50059
613.965	0.17954
614.159	0.23868
614.354	0.54481
614.549	0.35613
614.744	0.44671
614.938	0.31138
615.133	0.22618
615.328	0.42217
615.523	0.45553
615.717	0.68186
615.912	0.33139
616.107	0.41467
616.301	0.27178
616.496	0.23012
616.691	0.54362
616.885	0.48992
617.08	0.50828
617.274	0.54511
617.469	0.45426
617.664	0.39285
617.858	0.21429
618.053	0.30684
618.247	0.30174
618.442	0.13284
618.636	0.4518
618.831	0.374
619.025	0.29246
619.219	0.73426
619.414	-0.10319
619.608	0.29844
619.803	0.18627
619.997	0.50185
620.191	0.50566
620.386	0.30571
620.58	0.34523
620.774	0.0354
620.969	0.09676
621.163	0.09982
621.357	0.21993
621.551	0.33968
621.746	0.35293
621.94	0.33202
622.134	0.7903
622.328	0.571
622.522	0.32925
622.716	0.57648
622.911	0.5193
623.105	0.37606
623.299	0.30319
623.493	0.70433
623.687	0.16698
623.881	0.34053
624.075	0.3797
624.269	0.22667
624.463	0.34317
624.657	0.101
624.851	0.43504
625.045	0.60595
625.239	0.44905
625.433	0.04418
625.627	0.60548
625.821	0.27858
626.015	0.26335
626.209	0.21077
626.403	0.00407
626.596	0.37801
626.79	0.30112
626.984	0.25496
627.178	0.31906
627.372	0.35184
627.565	0.40307
627.759	-0.09702
627.953	0.15778
628.147	0.40767
628.34	0.36957
628.534	0.48914
628.728	0.26281
628.921	0.46466
629.115	0.32513
629.309	0.26541
629.502	0.42849
629.696	0.42355
629.89	0.28999
630.083	0.32116
630.277	0.43721
630.47	0.51502
630.664	0.29063
630.857	0.21259
631.051	0.5384
631.244	0.43004
631.438	0.4024
631.631	0.07843
631.825	0.51544
632.018	0.51352
632.212	0.72163
632.405	0.55822
632.598	0.32661
632.792	0.48572
632.985	0.02353
633.178	0.18403
633.372	0.35203
633.565	0.26259
633.758	0.48699
633.952	0.31214
634.145	0.13621
634.338	0.25913
634.531	0.5047
634.724	0.12857
634.918	0.35125
635.111	0.31044
635.304	0.09557
635.497	0.63712
635.69	0.3793
635.883	0.60613
636.077	0.1768
636.27	0.40623
636.463	0.50376
636.656	0.43359
636.849	0.16684
637.042	0.45371
637.235	0.80291
637.428	0.53787
637.621	0.43704
637.814	0.91329
638.007	0.85354
638.2	0.60033
638.393	0.70399
638.586	0.44814
638.778	0.14729
638.971	0.53041
639.164	0.61812
639.357	0.60693
639.55	0.59517
639.743	0.72186
639.935	0.37182
640.128	0.86813
640.321	0.48503
640.514	0.38024
640.707	0.87126
640.899	0.58527
641.092	0.27007
641.285	2.52736
641.477	0.19579
641.67	0.69905
641.863	0.50513
642.055	0.30534
642.248	0.83231
642.441	0.54752
642.633	0.36868
642.826	0.59312
643.018	0.62713
643.211	0.74602
643.403	0.7824
643.596	0.70272
643.788	0.46521
643.981	0.51155
644.173	0.41059
644.366	0.17136
644.558	0.59674
644.751	0.5511
644.943	0.22251
645.135	0.94226
645.328	0.78997
645.52	0.78555
645.712	0.49724
645.905	1.23197
646.097	0.13145
646.289	0.40516
646.482	0.73885
646.674	0.58219
646.866	0.56408
647.058	0.61971
647.251	0.21683
647.443	0.35152
647.635	0.33131
647.827	0.26154
648.019	0.41556
648.211	0.57292
648.404	0.47544
648.596	0.82858
648.788	0.62133
648.98	0.50286
649.172	0.42513
649.364	0.89307
649.556	0.28299
649.748	0.71001
649.94	0.25171
650.132	0.72616
650.324	0.47844
650.516	0.46646
650.708	0.82834
650.9	0.33939
651.092	0.37619
651.284	0.26009
651.476	0.40886
651.667	0.58183
651.859	0.70815
652.051	0.58931
652.243	0.71926
652.435	0.25408
652.627	0.69608
652.818	0.56246
653.01	0.06545
653.202	0.29253
653.394	0.66645
653.585	0.77779
653.777	1.31398
653.969	0.41017
654.16	0.77712
654.352	0.28327
654.544	0.56939
654.735	0.76199
654.927	0.47096
655.118	0.65985
655.31	0.92351
655.502	0.71421
655.693	0.65665
655.885	0.54124
656.076	0.63777
656.268	0.70821
656.459	0.6003
656.651	0.79354
656.842	0.43334
657.034	0.32091
657.225	0.76321
657.416	0.70805
657.608	0.79193
657.799	0.58125
657.99	0.41883
658.182	0.18165
658.373	0.27781
658.564	0.72535
658.756	0.50713
658.947	0.40683
659.138	0.22733
659.33	0.36246
659.521	0.32881
659.712	0.33668
659.903	0.28234
660.094	0.29037
660.286	0.17456
660.477	0.82647
660.668	0.45952
660.859	0.54277
661.05	0.3377
661.241	0.60304
661.432	0.51991
661.623	0.43396
661.814	0.44713
662.006	0.02167
662.197	0.37644
662.388	1.03065
662.579	0.55625
662.77	0.93249
662.96	1.14498
663.151	0.79892
663.342	0.42747
663.533	0.47442
663.724	0.45541
663.915	0.72235
664.106	0.5933
664.297	1.18652
664.488	0.64726
664.678	0.55639
664.869	0.78491
665.06	0.90688
665.251	0.28867
665.442	0.77938
665.632	0.54047
665.823	1.23434
666.014	0.15638
666.204	0.73923
666.395	0.98378
666.586	1.41556
666.776	0.50413
666.967	1.15126
667.158	0.64273
667.348	0.85781
667.539	0.42785
667.729	0.9952
667.92	0.40881
668.111	0.77879
668.301	0.68607
668.492	0.35974
668.682	0.27311
668.873	0.18685
669.063	0.27485
669.253	0.48439
669.444	1.13904
669.634	0.53402
669.825	1.0638
670.015	0.96836
670.206	0.24743
670.396	1.16213
670.586	0.47055
670.777	0.88834
670.967	0.19583
671.157	0.58509
671.347	0.57801
671.538	0.99792
671.728	0.68841
671.918	0.97246
672.108	0.86775
672.299	0.51055
672.489	0.62516
672.679	0.72274
672.869	0.59322
673.059	1.1822
673.249	0.92663
673.44	0.42303
673.63	0.94371
673.82	1.06873
674.01	0.57507
674.2	0.56839
674.39	1.33023
674.58	0.74785
674.77	0.7372
674.96	0.70494
675.15	1.62689
675.34	0.9009
675.53	0.49708
675.72	0.44267
675.91	0.74949
676.099	1.19389
676.289	1.03562
676.479	0.8296
676.669	0.32771
676.859	0.93754
677.049	0.33413
677.238	0.40201
677.428	1.03618
677.618	0.5329
677.808	1.32281
677.997	0.69129
678.187	0.36555
678.377	0.474
678.567	0.55199
678.756	0.57848
678.946	0.48745
679.136	0.31135
679.325	0.48244
679.515	0.46873
679.704	0.37289
679.894	1.00359
680.084	0.58175
680.273	0.98247
680.463	0.15664
680.652	0.29971
680.842	0.38272
681.031	0.77577
681.221	0.23813
681.41	0.8365
681.6	0.84047
681.789	0.8263
681.978	0.82094
682.168	0.69488
682.357	0.70052
682.547	0.97895
682.736	0.60603
682.925	0.97165
683.115	1.15338
683.304	0.92343
683.493	0.55782
683.682	1.06977
683.872	0.92918
684.061	1.07626
684.25	0.87701
684.439	1.31876
684.629	0.9529
684.818	1.62559
685.007	0.62542
685.196	0.57879
685.385	1.13445
685.574	1.12677
685.763	0.50971
685.952	0.91288
686.142	0.55006
686.331	1.13312
686.52	0.34837
686.709	1.19871
686.898	1.18677
687.087	0.89267
687.276	1.2726
687.465	0.64436
687.654	0.77321
687.842	0.84784
688.031	0.22541
688.22	1.05746
688.409	0.55433
688.598	0.58834
688.787	1.65984
688.976	0.83547
689.165	1.30093
689.353	0.86875
689.542	1.12246
689.731	0.99123
689.92	1.50724
690.108	1.20265
690.297	0.81403
690.486	0.77072
690.675	0.98704
690.863	1.31876
691.052	0.95491
691.241	1.26707
691.429	0.71678
691.618	1.08355
691.806	0.31009
691.995	0.98095
692.184	1.11719
692.372	0.55275
692.561	0.85125
692.749	0.821
692.938	1.95445
693.126	0.8626
693.315	0.77623
693.503	1.20434
693.692	1.33059
693.88	0.96341
694.068	1.921
694.257	0.5089
694.445	1.17201
694.634	0.14356
694.822	1.33318
695.01	1.57785
695.199	1.90148
695.387	1.25373
695.575	1.5203
695.763	0.89965
695.952	0.82644
696.14	0.23417
696.328	0.65035
696.516	0.99103
696.705	0.90254
696.893	0.73582
697.081	0.37689
697.269	0.92472
697.457	0.61512
697.645	0.43958
697.833	0.98923
698.021	0.34176
698.21	0.76114
698.398	0.65461
698.586	0.29702
698.774	0.43861
698.962	0.47847
699.15	0.23828
699.338	0.29247
699.526	0.86596
699.714	0.64362
699.901	0.54407
700.089	0.90803
700.277	0.43004
700.465	0.72653
700.653	0.88136
700.841	0.7785
701.029	0.44536
701.217	1.09449
701.404	0.70083
701.592	1.0597
701.78	1.73139
701.968	0.59211
702.155	0.6063
702.343	0.43289
702.531	1.16096
702.718	1.3073
702.906	0.43967
703.094	0.48002
703.281	1.32088
703.469	0.43835
703.657	0.92157
703.844	1.99887
704.032	2.11165
704.219	0.58088
704.407	1.18721
704.595	1.61164
704.782	0.49823
704.97	0.40545
705.157	0.78099
705.345	1.93501
705.532	1.71318
705.719	1.02044
705.907	1.67373
706.094	0.8731
706.282	1.57989
706.469	1.12968
706.656	1.28852
706.844	0.49732
707.031	1.2795
707.218	0.9797
707.406	1.42096
707.593	1.46113
707.78	1.36573
707.968	0.9412
708.155	0.67831
708.342	1.25249
708.529	1.51207
708.716	0.63311
708.904	1.55099
709.091	1.07849
709.278	0.68957
709.465	1.36647
709.652	1.85727
709.839	1.42771
710.026	0.68911
710.213	0.37834
710.4	0.99445
710.587	1.28037
710.774	1.95617
710.961	2.01148
711.148	1.02597
711.335	1.89626
711.522	0.88289
711.709	1.17104
711.896	1.65599
712.083	1.47682
712.27	0.88607
712.457	1.49607
712.644	0.72594
712.831	2.11029
713.017	1.21161
713.204	1.32984
713.391	0.89938
713.578	1.67284
713.765	1.45044
713.951	1.18254
714.138	2.61074
714.325	1.53494
714.512	0.94618
714.698	1.07484
714.885	1.5856
715.072	1.23045
715.258	1.2743
715.445	0.87688
715.631	1.74902
715.818	0.5282
716.005	1.08063
716.191	1.24518
716.378	1.37414
716.564	1.05101
716.751	0.72252
716.937	0.86207
717.124	1.58737
717.31	0.79036
717.497	1.96442
717.683	0.86489
717.869	1.96444
718.056	0.63775
718.242	1.38197
718.429	1.23492
718.615	0.34838
718.801	1.14504
718.988	1.49787
719.174	0.87518
719.36	1.0081
719.547	2.08464
719.733	1.83108
719.919	1.00836
720.105	1.67082
720.291	1.06378
720.478	1.65332
720.664	1.57573
720.85	1.77723
721.036	2.43404
721.222	1.9023
721.408	0.74799
721.595	2.39172
721.781	2.5002
721.967	2.26188
722.153	2.20962
722.339	1.18897
722.525	1.42765
722.711	0.87201
722.897	0.50873
723.083	1.34592
723.269	1.98377
723.455	3.08216
723.641	3.81906
723.827	1.76469
724.012	1.44309
724.198	1.09046
724.384	1.74555
724.57	1.12337
724.756	0.37419
724.942	0.02395
725.127	2.56812
725.313	2.61545
725.499	2.09396
725.685	2.15204
725.87	1.88715
726.056	1.03119
726.242	2.17345
726.428	0.96485
726.613	1.87778
726.799	1.26491
726.985	0.41268
727.17	1.28149
727.356	2.56488
727.541	0.63484
727.727	1.66958
727.913	1.88115
728.098	1.55139
728.284	1.81148
728.469	1.23169
728.655	1.42621
728.84	1.75015
729.026	1.56992
729.211	1.52226
729.397	1.1154
729.582	1.46989
729.767	1.15723
729.953	1.5042
730.138	2.50627
730.323	0.32179
730.509	0.91025
730.694	1.65196
730.879	1.86994
731.065	1.91211
731.25	2.71269
731.435	1.73036
731.621	1.29113
731.806	1.05135
731.991	1.57763
732.176	0.41973
732.361	2.42281
732.547	1.62372
732.732	0.32211
732.917	3.07301
733.102	0.9981
733.287	1.02945
733.472	1.3338
733.657	1.65707
733.842	1.10074
734.027	1.33666
734.212	2.0741
734.397	0.60277
734.582	1.6424
734.767	1.60875
734.952	2.18582
735.137	0.2046
735.322	2.46231
735.507	1.54174
735.692	1.20299
735.877	2.47884
736.062	2.21981
736.247	1.90573
736.431	1.52661
736.616	2.39073
736.801	2.32871
736.986	1.39675
737.171	0.36392
737.355	1.05776
737.54	2.33363
737.725	1.84865
737.909	2.71483
738.094	1.90756
738.279	1.50368
738.463	1.69604
738.648	1.33648
738.833	1.50005
739.017	2.77232
739.202	1.1707
739.386	1.93717
739.571	1.13571
739.756	1.57892
739.94	1.63231
740.125	1.89481
740.309	1.68522
740.494	2.98467
740.678	1.76358
740.863	1.74074
741.047	1.33674
741.231	2.48605
741.416	1.3098
741.6	1.52588
741.785	1.28892
741.969	1.66338
742.153	3.00703
742.338	0.5725
742.522	1.19917
742.706	2.65749
742.89	0.78165
743.075	1.59644
743.259	2.90396
743.443	2.0792
743.627	2.19403
743.812	2.83699
743.996	1.62141
744.18	1.30911
744.364	1.94812
744.548	2.66126
744.732	2.64162
744.916	1.67061
745.1	2.83304
745.285	1.35233
745.469	1.08351
745.653	3.34953
745.837	1.05634
746.021	2.68334
746.205	2.33235
746.389	2.76464
746.573	1.59353
746.757	2.10552
746.94	0.99033
747.124	2.14728
747.308	1.24902
747.492	2.57355
747.676	1.66737
747.86	2.77021
748.044	1.81946
748.227	1.00934
748.411	3.16656
748.595	1.68433
748.779	1.14859
748.963	1.62484
749.146	2.17674
749.33	1.02057
749.514	2.18388
749.697	2.63499
749.881	1.12333
750.065	1.48016
750.248	1.71592
750.432	3.77435
750.616	2.13149
750.799	0.90937
750.983	3.84931
751.166	3.88528
751.35	0.48721
751.533	2.42384
751.717	2.65994
751.9	2.51073
752.084	1.7136
752.267	0.68323
752.451	1.35182
752.634	2.33249
752.818	2.52468
753.001	2.27059
753.184	2.10759
753.368	1.42461
753.551	0.19238
753.734	0.95862
753.918	3.70292
754.101	2.22771
754.284	2.17466
754.467	1.73575
754.651	1.40756
754.834	0.89913
755.017	2.90578
755.2	2.06129
755.384	1.37271
755.567	1.89523
755.75	2.08739
755.933	1.00849
756.116	2.1081
756.299	1.10212
756.482	1.28382
756.665	3.18162
756.848	3.26848
757.032	1.96004
757.215	0.53841
757.398	1.27869
757.581	0.33147
757.764	3.60449
757.947	2.4049
758.129	2.2727
758.312	1.53232
758.495	1.86326
758.678	1.89036
758.861	2.85341
759.044	2.10675
759.227	0.74154
759.41	1.90491
759.592	1.99232
759.775	1.73084
759.958	1.88151
760.141	1.15647
760.324	2.76197
760.506	4.07991
760.689	2.98982
760.872	3.27122
761.054	1.91051
761.237	1.99173
761.42	1.83688
761.602	2.72393
761.785	2.82054
761.968	2.20864
762.15	2.64276
762.333	2.20003
762.515	2.43208
762.698	0.65962
762.88	2.41948
763.063	2.3167
763.245	2.14667
763.428	1.14065
763.61	1.39514
763.793	1.01157
763.975	2.15971
764.158	1.75498
764.34	1.13026
764.522	1.31562
764.705	1.47537
764.887	2.7215
765.069	0.44718
765.252	2.38317
765.434	2.44198
765.616	2.61035
765.799	2.13241
765.981	2.46984
766.163	1.21572
766.345	3.24394
766.528	1.74454
766.71	0.15894
766.892	1.66974
767.074	2.91896
767.256	2.45613
767.438	1.78239
767.62	1.10332
767.802	4.0726
767.985	2.82639
768.167	4.06381
768.349	0.7148
768.531	2.18907
768.713	3.00051
768.895	2.09238
769.077	2.74359
769.259	3.84601
769.441	4.81206
769.623	2.55931
769.804	2.26968
769.986	3.56686
770.168	4.59184
770.35	4.00548
770.532	2.69532
770.714	3.40364
770.896	3.95643
771.077	0.46656
771.259	4.42305
771.441	4.27962
771.623	3.33957
771.804	5.01565
771.986	1.47606
772.168	2.20434
772.35	3.36594
772.531	6.23165
772.713	2.95417
772.894	3.61462
773.076	1.80684
773.258	1.59642
773.439	3.65943
773.621	6.0681
773.802	1.18944
773.984	2.61707
774.166	4.04552
774.347	4.29164
774.529	4.13707
774.71	1.09877
774.891	3.27541
775.073	2.19448
775.254	5.61442
775.436	3.13802
775.617	5.07677
775.799	4.18561
775.98	4.66687
776.161	4.14741
776.343	4.95783
776.524	2.41087
776.705	2.61552
776.886	1.57335
777.068	2.60193
777.249	8.711
777.43	6.0542
777.611	2.08815
777.793	2.97248
777.974	4.23062
778.155	3.19591
778.336	1.09936
778.517	6.2093
778.698	3.00659
778.879	1.07692
779.061	-0.11231
779.242	6.14617
779.423	3.22538
779.604	3.92136
779.785	2.63709
779.966	3.65669
780.147	3.36719
780.328	4.40133
780.509	5.42601
780.69	3.96623
780.871	2.92879
781.051	-0.1495
781.232	3.30433
781.413	5.91031
781.594	3.99032
781.775	2.95308
781.956	2.85416
782.137	1.43991
782.317	2.43764
782.498	4.16497
782.679	1.29669
782.86	3.18884
783.04	1.72105
783.221	3.16117
783.402	5.27517
783.583	4.41764
783.763	4.03175
783.944	2.52849
784.124	1.80039
784.305	4.65395
784.486	4.72658
784.666	2.28583
784.847	1.92672
785.027	8.07411
785.208	1.24136
785.388	3.5777
785.569	1.07364
785.749	2.50229
785.93	4.074
786.11	0.89316
786.291	3.51416
786.471	4.96051
786.652	3.61401
786.832	3.42426
787.012	3.15328
787.193	1.4022
787.373	3.37566
787.553	2.47094
787.734	2.5074
787.914	3.46016
788.094	4.4609
788.275	3.5665
788.455	2.98476
788.635	3.08115
788.815	2.89282
788.995	2.17933
789.176	2.12327
789.356	1.56029
789.536	2.41588
789.716	3.65427
789.896	2.77569
790.076	1.76422
790.256	3.28877
790.436	0.61938
790.616	1.25855
790.796	3.72399
790.976	2.11167
791.156	2.80185
791.336	3.80812
791.516	3.54147
791.696	2.49608
791.876	2.13657
792.056	3.87083
792.236	3.57363
792.416	4.39283
792.596	3.26457
792.776	4.45038
792.956	4.60237
793.135	5.81887
793.315	1.12037
793.495	6.46548
793.675	5.11543
793.854	3.8365
794.034	3.20122
794.214	1.18269
794.394	3.53105
794.573	3.28626
794.753	2.44461
794.933	2.4587
795.112	3.18169
795.292	4.27505
795.472	6.05154
795.651	1.90534
795.831	2.53931
796.01	1.61679
796.19	2.09131
796.369	2.94124
796.549	4.12096
796.728	2.73675
796.908	1.93334
797.087	1.44512
797.267	2.70401
797.446	2.72844
797.626	4.32705
797.805	2.85165
797.984	3.29741
798.164	3.02515
798.343	2.06051
798.522	3.87233
798.702	3.42746
798.881	2.61417
799.06	1.71087
799.239	0.32218
799.419	1.96212
799.598	4.94439
799.777	2.81542
799.956	3.91687
800.136	2.95383
800.315	4.27309
800.494	3.79759
800.673	5.02996
800.852	5.53653
801.031	5.73308
801.21	3.80733
801.389	1.36107
801.568	2.88126
801.747	6.35581
801.926	1.45991
802.105	3.81707
802.284	2.85903
802.463	5.87678
802.642	3.13489
802.821	2.3295
803	4.18484
803.179	3.12323
803.358	2.12907
803.537	3.16849
803.716	3.91225
803.895	0.7763
804.073	2.81409
804.252	3.55544
804.431	2.65127
804.61	2.62196
804.789	3.94027
804.967	1.09386
805.146	2.54629
805.325	7.5712
805.503	2.35019
805.682	1.95256
805.861	8.79409
806.039	4.96066
806.218	3.08445
806.397	3.42357
806.575	2.41788
806.754	4.54795
806.932	2.13972
807.111	4.94249
807.289	5.38265
807.468	4.18998
807.646	3.45827
807.825	1.78233
808.003	5.02223
808.182	4.0157
808.36	2.3673
808.539	3.65147
808.717	5.00664
808.895	3.17762
809.074	3.76012
809.252	3.24464
809.43	3.81399
809.609	5.14961
809.787	4.36483
809.965	2.05626
810.144	3.5029
810.322	2.55416
810.5	2.13648
810.678	1.96681
810.856	5.93844
811.035	5.91288
811.213	3.69987
811.391	3.99135
811.569	2.37133
811.747	7.40543
811.925	4.47667
812.103	3.58894
812.281	2.4104
812.459	7.47691
812.637	5.42231
812.816	3.96684
812.994	5.72612
813.171	3.50896
813.349	5.58097
813.527	5.88719
813.705	5.65479
813.883	5.70129
814.061	5.40827
814.239	6.12628
814.417	5.85471
814.595	6.35696
814.773	3.153
814.95	5.63812
815.128	3.13718
815.306	2.91034
815.484	1.44545
815.662	2.6301
815.839	1.90264
816.017	4.26744
816.195	4.03255
816.372	2.89938
816.55	6.47853
816.728	5.57261
816.905	3.60104
817.083	5.40063
817.261	2.48789
817.438	9.02905
817.616	5.7681
817.793	4.36956
817.971	4.73521
818.148	3.24062
818.326	5.06078
818.503	4.73997
818.681	7.10484
818.858	3.45583
819.036	3.27387
819.213	3.37458
819.391	1.74259
819.568	1.1816
819.745	2.31049
819.923	3.99069
820.1	3.69244
820.277	2.06658
820.455	1.62931
820.632	2.30053
820.809	4.12623
820.986	2.49411
821.164	1.1725
821.341	1.41626
821.518	2.32291
821.695	1.30731
821.872	1.17558
822.05	0.69541
822.227	0.46751
822.404	0.49267
822.581	0.8758
822.758	0.48307
822.935	0.53953
823.112	0.86213
823.289	0.16632
823.466	1.01253
823.643	0.77907
823.82	0.89244
823.997	0.42834
824.174	0.95518
824.351	1.80417
824.528	1.47064
824.705	0.89262
824.882	1.86632
825.059	2.20303
825.236	1.65919
825.412	0.84969
825.589	2.05264
825.766	3.57104
825.943	1.08118
826.12	1.95387
826.296	1.14265
826.473	1.63825
826.65	1.5043
826.827	2.61569
827.003	1.28673
827.18	1.87292
827.357	2.19675
827.533	0.98662
827.71	0.62548
827.887	1.26672
828.063	1.77797
828.24	1.61403
828.416	1.9575
828.593	1.22419
828.769	2.54703
828.946	2.17988
829.122	2.87581
829.299	2.36239
829.475	1.47873
829.652	1.17683
829.828	3.86574
830.005	2.98562
830.181	2.90661
830.357	2.13184
830.534	2.14251
830.71	2.54757
830.886	3.79796
831.063	3.63073
831.239	5.05444
831.415	1.5118
831.592	6.43931
831.768	1.8451
831.944	2.29782
832.12	5.76654
832.296	3.62315
832.473	2.78689
832.649	3.52501
832.825	4.21316
833.001	2.61276
833.177	3.44407
833.353	3.65968
833.529	1.54977
833.705	2.64032
833.881	1.45252
834.058	1.20644
834.234	1.88849
834.41	1.73361
834.586	1.39223
834.761	1.43359
834.937	1.88098
835.113	2.13437
835.289	2.33581
835.465	1.61625
835.641	1.46414
835.817	2.35565
835.993	3.42978
836.169	2.25173
836.344	2.47041
836.52	3.49996
836.696	3.82972
836.872	2.36631
837.048	8.46859
837.223	2.78537
837.399	4.3422
837.575	3.90667
837.75	4.76928
837.926	4.86016
838.102	8.10578
838.277	7.31167
838.453	10.03314
838.628	10.61707
838.804	6.68238
838.98	7.54333
839.155	4.29476
839.331	7.29503
839.506	4.67715
839.682	3.52665
839.857	6.16253
840.033	6.97248
840.208	1.52911
840.384	0.11695
840.559	3.03847
840.734	5.32387
840.91	10.24707
841.085	3.60712
841.26	3.78366
841.436	3.14483
841.611	1.49462
841.786	4.46775
841.962	8.79725
842.137	5.06197
842.312	6.00997
842.487	5.68824
842.663	5.40151
842.838	0.946
843.013	14.19664
843.188	10.02375
843.363	3.80705
843.538	10.56415
843.714	11.79669
843.889	13.22471
844.064	12.33645
844.239	8.68082
844.414	13.57829
844.589	7.49223
844.764	9.68109
844.939	15.4026
845.114	16.14379
845.289	18.0978
845.464	20.58506
845.639	12.94645
845.814	7.85863
845.989	8.58361
846.163	8.06603
846.338	13.4013
846.513	14.28047
846.688	12.57103
846.863	8.9329
847.038	10.75799
847.212	7.04722
847.387	7.68985
847.562	9.25739
847.737	14.71759
847.911	0.90178
848.086	5.68136
848.261	14.64609
848.435	10.18823
848.61	13.29967
848.785	3.77672
848.959	12.81797
849.134	17.70424
849.308	18.2675
849.483	11.05482
849.658	16.5634
849.832	7.4483
850.007	2.62685
850.181	20.92896
850.356	4.78286
850.53	18.33039
850.705	6.6388
850.879	2.89185
851.053	7.6004
851.228	6.56136
851.402	12.19031
851.577	11.51478
851.751	14.4079
851.925	8.32236
852.099	8.93457
852.274	6.07065
852.448	5.65125
852.622	16.69698
852.797	9.58561
852.971	10.63201
853.145	13.40771
853.319	32.8405
853.493	17.53067
853.668	4.9895
853.842	15.88665
854.016	11.10734
854.19	13.86587
854.364	12.18255
854.538	12.76279
854.712	10.7996
854.886	9.96297
855.06	8.24332
855.234	1.75729
855.408	15.29891
855.582	10.98129
855.756	12.32561
855.93	20.04361
856.104	6.99246
856.278	11.75661
856.452	5.56606
856.626	15.69646
856.8	23.43326
856.973	11.1853
857.147	8.22541
857.321	12.07519
857.495	8.41383
857.669	9.9822
857.842	11.72748
858.016	15.73924
858.19	7.30734
858.364	21.38932
858.537	9.78396
858.711	8.92309
858.885	11.29573
859.058	8.7507
859.232	4.92939
859.405	3.61934
859.579	15.69156
859.753	14.15447
859.926	9.19483
860.1	7.37448
860.273	15.97674
860.447	14.80754
860.62	10.53437
860.794	19.44168
860.967	14.23597
861.141	13.29157
861.314	27.56742
861.487	10.17245
861.661	14.16338
861.834	12.8914
862.008	17.89929
862.181	9.55147
862.354	15.11459
862.528	9.88862
862.701	8.27256
862.874	5.40507
863.047	11.24486
863.221	7.48125
863.394	1.83702
863.567	15.76633
863.74	8.06276
863.913	16.82243
864.087	15.14831
864.26	9.62155
864.433	13.27387
864.606	18.83808
864.779	7.50887
864.952	4.39214
865.125	7.6403
865.298	6.13504
865.471	12.56398
865.644	18.54021
865.817	15.38861
865.99	13.57957
866.163	12.28111
866.336	5.50704
866.509	10.34034
866.682	8.76339
866.855	10.56753
867.028	2.09288
867.2	11.36843
867.373	4.70053
867.546	11.34472
867.719	19.46113
867.892	10.88213
868.064	6.49714
868.237	11.65741
868.41	6.29534
868.583	8.28178
868.755	4.86548
868.928	9.46823
869.101	22.75982
869.273	10.36114
869.446	10.24326
869.619	12.93832
869.791	8.49724
869.964	10.78659
870.136	7.88013
870.309	9.45226
870.481	7.98003
870.654	2.08531
870.826	12.05601
870.999	7.94744
871.171	13.32266
871.344	9.58547
871.516	14.24596
871.689	4.46213
871.861	9.41974
872.033	8.97206
872.206	5.20365
872.378	15.36934
872.55	7.20413
872.723	11.5824
872.895	11.95964
873.067	11.15655
873.24	20.55624
873.412	6.14953
873.584	4.8805
873.756	7.86041
873.928	10.69413
874.101	10.21866
874.273	14.68894
874.445	2.20105
874.617	5.55725
874.789	10.09473
874.961	6.82304
875.133	11.19368
875.305	7.90686
875.477	4.88106
875.649	6.16657
875.821	10.27903
875.993	16.98296
876.165	8.21747
876.337	7.50697
876.509	7.88096
876.681	11.56859
876.853	8.55073
877.025	10.76443
877.197	4.22655
877.369	6.7634
877.541	11.71147
877.712	5.84878
877.884	5.52341
878.056	10.70029
878.228	9.39938
878.4	9.94486
878.571	7.50023
878.743	4.31611
878.915	11.19175
879.086	5.78079
879.258	6.78794
879.43	9.43509
879.601	5.87209
879.773	5.75126
879.945	0.5366
880.116	2.70922
880.288	1.24636
880.459	2.1762
880.631	0.38924
880.802	1.33461
880.974	1.19437
881.145	0.57052
881.317	0.78996
881.488	0.75487
881.66	1.09349
881.831	0.75712
882.002	1.39909
882.174	0.5186
882.345	1.36747
882.517	-0.08483
882.688	1.73654
882.859	1.14502
883.03	3.33331
883.202	1.7146
883.373	0.86814
883.544	2.04521
883.715	3.64195
883.887	1.79085
884.058	2.8358
884.229	3.77432
884.4	2.7789
884.571	3.25622
884.742	3.20704
884.914	2.02018
885.085	5.19555
885.256	6.09897
885.427	4.99689
885.598	8.14032
885.769	7.80332
885.94	4.12204
886.111	-0.37548
886.282	7.66222
886.453	4.91387
886.624	2.95587
886.795	7.81112
886.966	5.42319
887.136	9.59074
887.307	4.19684
887.478	10.7266
887.649	8.71796
887.82	12.73394
887.991	7.38178
888.161	11.0338
888.332	7.68079
888.503	9.43934
888.674	15.84328
888.844	19.89851
889.015	10.00306
889.186	3.2029
889.356	13.67238
889.527	7.41149
889.698	23.21402
889.868	10.12909
890.039	15.7321
890.209	9.13224
890.38	4.79143
890.551	10.26117
890.721	13.89837
890.892	10.72821
891.062	5.77
891.233	10.27409
891.403	9.55602
891.574	6.43621
891.744	11.28256
891.914	7.64973
892.085	10.69959
892.255	1.81135
892.425	13.51761
892.596	9.73886
892.766	10.13552
892.936	13.72736
893.107	10.59252
893.277	2.13635
893.447	5.96747
893.618	2.15375
893.788	5.1063
893.958	3.95389
894.128	4.61744
894.298	2.81113
894.468	6.25528
894.639	2.52754
894.809	1.70648
894.979	3.65988
895.149	3.23164
895.319	3.12342
895.489	4.78136
895.659	5.30332
895.829	2.91371
895.999	3.77004
896.169	2.35132
896.339	1.65213
896.509	7.84031
896.679	13.18135
896.849	9.22351
897.019	12.59308
897.189	9.97045
897.358	8.66703
897.528	13.93759
897.698	5.40979
897.868	9.96892
898.038	23.56821
898.208	16.27
898.377	1.40089
898.547	17.7475
898.717	20.24668
898.886	10.71849
899.056	19.04401
899.226	22.9885
899.395	16.52871
899.565	18.68112
899.735	15.05977
899.904	18.2547
900.074	19.26544
900.244	7.81047
900.413	34.64964
900.583	7.26782
900.752	11.90733
900.922	26.97554
901.091	1.41956
901.261	15.77658
901.43	8.75046
901.599	9.3478
901.769	33.64512
901.938	19.65307
902.108	13.45439
902.277	23.60124
902.446	6.61984
902.616	9.01974
902.785	5.14573
902.954	18.46092
903.124	12.90869
903.293	7.18245
903.462	4.34586
903.631	6.85575
903.801	7.02019
903.97	2.07827
904.139	3.41335
904.308	3.85771
904.477	2.65384
904.646	2.30047
904.816	2.64685
904.985	3.97175
905.154	6.91402
