Data from WindowProjectSample3_Transmission__22__00022.txt Node

Date: Sun May 04 10:11:35 EDT 2025
User: jessi
Spectrometer: SR400872
Trigger mode: 0
Integration Time (sec): 5.000050E-1
Scans to average: 10
Electric dark correction enabled: true
Nonlinearity correction enabled: true
Boxcar width: 0
XAxis mode: Wavelengths
Number of Pixels in Spectrum: 3648
>>>>>Begin Spectral Data<<<<<
184.909	1.14859
185.132	1.49731
185.355	1.48274
185.578	-0.7366
185.801	16.08125
186.024	2.8119
186.247	3.54995
186.47	2.3107
186.693	-52.55682
186.916	21.12436
187.139	-2.85283
187.362	-2.67557
187.585	-0.88804
187.808	-0.23445
188.031	87.52137
188.254	-8.84377
188.476	12.14569
188.699	5.923
188.922	-33.84873
189.145	0.92569
189.368	6.34262
189.591	2.02819
189.813	3.2357
190.036	-5.82116
190.259	-1.87488
190.482	2.31217
190.705	-0.34466
190.927	1.06862
191.15	1.05389
191.373	8.33164
191.595	1.8479
191.818	1.25578
192.041	1.07418
192.263	8.08893
192.486	9.50157
192.709	-0.38742
192.931	1.52488
193.154	-2.74906
193.377	-0.44626
193.599	-4.36317
193.822	-8.38988
194.044	5.75506
194.267	-5.97554
194.489	-31.2537
194.712	-1.68746
194.934	-2.52728
195.157	-9.64574
195.379	7.14352
195.602	12.55031
195.824	-0.39871
196.047	-6.31285
196.269	-0.3478
196.492	6.53718
196.714	-0.31679
196.936	-0.82998
197.159	-3.7841
197.381	1.17519
197.604	5.77574
197.826	-3.2367
198.048	-10.97867
198.271	0.4655
198.493	0.35603
198.715	-2.52812
198.938	5.75147
199.16	5.38991
199.382	0.42153
199.604	14.40758
199.827	4.48679
200.049	2.78874
200.271	0.19009
200.493	-3.4087
200.715	0.32951
200.938	6.29777
201.16	-0.20658
201.382	-2.83902
201.604	-1.37277
201.826	11.83133
202.048	-4.96034
202.27	5.45349
202.492	5.49672
202.715	3.03471
202.937	1.44908
203.159	2.35144
203.381	-1.1668
203.603	0.14401
203.825	8.38513
204.047	4.9547
204.269	4.00391
204.491	5.47308
204.713	-4.37861
204.935	2.95026
205.156	0.28562
205.378	4.2191
205.6	0.58197
205.822	-0.46074
206.044	6.08339
206.266	-3.69633
206.488	-2.82158
206.71	-0.70445
206.932	5.58322
207.153	-0.12121
207.375	5.02927
207.597	5.30555
207.819	-3.60179
208.041	2.21487
208.262	2.18496
208.484	14.09404
208.706	-0.57887
208.927	-3.35663
209.149	3.92089
209.371	1.10099
209.593	9.47221
209.814	13.03497
210.036	9.5707
210.258	2.81698
210.479	12.77166
210.701	-0.24467
210.922	7.05016
211.144	-2.45183
211.366	1.94031
211.587	10.43779
211.809	1.81434
212.03	-3.2034
212.252	-1.36657
212.473	1.23168
212.695	4.26973
212.916	-1.19668
213.138	-8.15031
213.359	0.24689
213.581	-5.20477
213.802	6.80655
214.024	-0.71736
214.245	0.2142
214.466	-18.63635
214.688	3.01608
214.909	-3.7833
215.131	2.62872
215.352	2.82202
215.573	0.27381
215.795	1.16964
216.016	-1.11722
216.237	9.54844
216.459	1.54555
216.68	0.08297
216.901	1.67105
217.122	0.14418
217.344	1.72496
217.565	-0.3062
217.786	1.10291
218.007	1.4281
218.228	2.76367
218.45	-7.25603
218.671	17.54393
218.892	3.32277
219.113	5.45523
219.334	-210.28237
219.555	-2.29969
219.776	1.39656
219.997	-4.16364
220.219	4.63383
220.44	4.89795
220.661	7.81217
220.882	1.69087
221.103	6.3223
221.324	-12.83345
221.545	5.82619
221.766	-6.35289
221.987	-11.1778
222.208	-7.68139
222.429	5.07728
222.65	-33.36755
222.87	11.59968
223.091	8.61344
223.312	-1.63226
223.533	-1.92745
223.754	1.25629
223.975	4.85665
224.196	13.14793
224.417	-1.4064
224.637	11.14139
224.858	8.32591
225.079	-0.55364
225.3	2.64387
225.521	0.5964
225.741	4.08441
225.962	4.76299
226.183	-25.56035
226.404	0.50763
226.624	1.98501
226.845	5.18079
227.066	1.80074
227.286	2.52461
227.507	-8.95228
227.728	-10.5012
227.948	4.01998
228.169	-283.82427
228.389	-8.14803
228.61	6.63793
228.831	-28.48565
229.051	-0.07253
229.272	2.02788
229.492	5.99616
229.713	-1.25696
229.933	-0.79134
230.154	2.77966
230.374	1.26448
230.595	-2.16323
230.815	-1.85639
231.036	4.32175
231.256	-7.79609
231.477	-38.27265
231.697	13.14192
231.917	8.2566
232.138	-0.24698
232.358	1.26407
232.579	-4.8393
232.799	-10.93271
233.019	3.49722
233.24	11.34344
233.46	3.49735
233.68	-125.58687
233.901	6.22745
234.121	-3.03815
234.341	5.05771
234.561	-2.15203
234.782	-5.5869
235.002	0.15415
235.222	3.02626
235.442	7.93968
235.662	0.89327
235.883	-11.02134
236.103	-5.93569
236.323	5.83317
236.543	4.39958
236.763	-5.99843
236.983	1.26188
237.203	-8.20277
237.423	-25.35329
237.643	7.40151
237.864	-3.23859
238.084	6.44111
238.304	4.66331
238.524	-3.59878
238.744	1.51537
238.964	1.84023
239.184	-11.98455
239.404	-18.02824
239.624	2.08475
239.843	2.10092
240.063	-1.96542
240.283	4.07185
240.503	-0.0276
240.723	-3.22893
240.943	0.10194
241.163	1.67172
241.383	9.23044
241.603	-0.96728
241.822	0.81316
242.042	-0.34505
242.262	0.94451
242.482	-0.31788
242.702	-0.01499
242.921	-0.81394
243.141	-0.14953
243.361	-0.35392
243.581	-0.89777
243.8	0.65112
244.02	-0.21212
244.24	0.43879
244.459	0.52194
244.679	0.17429
244.899	0.88424
245.118	-0.12877
245.338	-0.81086
245.558	0.05837
245.777	-0.07899
245.997	-0.39927
246.216	-0.17863
246.436	-0.31836
246.655	-0.47951
246.875	0.04788
247.094	0.1576
247.314	-0.33778
247.533	0.06937
247.753	-0.23798
247.972	-0.09973
248.192	-0.27386
248.411	0.04018
248.631	-0.36076
248.85	0.05557
249.07	-0.35237
249.289	0.29254
249.508	-0.55271
249.728	-0.56841
249.947	-0.10195
250.166	0.01148
250.386	-0.006
250.605	-0.44998
250.824	-1.28219
251.044	-0.80454
251.263	-0.60336
251.482	0.26046
251.701	-0.81243
251.921	-0.21567
252.14	-0.12266
252.359	0.07335
252.578	-1.05426
252.798	-1.28067
253.017	-0.06547
253.236	-0.02078
253.455	0.33491
253.674	-0.30141
253.893	0.11037
254.112	0.37122
254.331	-0.49767
254.551	0.175
254.77	0.40664
254.989	-2.0721
255.208	0.43125
255.427	-0.49851
255.646	-1.55684
255.865	-1.56954
256.084	1.00829
256.303	-1.17468
256.522	-1.21286
256.741	0.61819
256.96	0.25092
257.179	-0.39473
257.397	-0.93011
257.616	-1.2676
257.835	0.40572
258.054	-0.2282
258.273	0.6123
258.492	0.65586
258.711	0.02875
258.93	-0.16581
259.148	0.43283
259.367	-0.02022
259.586	0.19284
259.805	0.03412
260.023	0.06673
260.242	0.11016
260.461	-0.31165
260.68	-0.1115
260.898	-0.18279
261.117	-0.13598
261.336	-0.10491
261.554	0.12811
261.773	-0.01784
261.992	-0.29385
262.21	0.32358
262.429	0.21973
262.648	0.21
262.866	-0.09529
263.085	-0.06045
263.303	-0.48197
263.522	0.08669
263.74	-0.45289
263.959	0.19633
264.178	0.00742
264.396	0.07059
264.615	-0.20455
264.833	0.89101
265.051	0.58367
265.27	-0.25369
265.488	-0.54991
265.707	-0.23913
265.925	0.1653
266.144	0.22459
266.362	-0.38765
266.58	-0.31379
266.799	0.16959
267.017	0.0851
267.235	-0.11548
267.454	-0.29677
267.672	-0.54845
267.89	-0.07351
268.109	0.02678
268.327	0.13677
268.545	-0.13306
268.763	0.11072
268.982	0.0443
269.2	0.39279
269.418	-0.27124
269.636	0.15716
269.854	0.00262
270.073	0.01769
270.291	0.19713
270.509	-0.01136
270.727	0.00228
270.945	-0.04165
271.163	0.17074
271.381	-0.01747
271.599	-0.38279
271.817	-0.15639
272.036	-0.06593
272.254	-0.06124
272.472	0.07259
272.69	-0.03568
272.908	-0.26848
273.126	0.10099
273.344	0.06526
273.562	-0.32518
273.779	-0.02015
273.997	-0.23247
274.215	0.34397
274.433	0.01211
274.651	0.01032
274.869	-0.12976
275.087	-0.11258
275.305	-0.17504
275.523	-0.22966
275.74	0.01291
275.958	-0.10538
276.176	-0.07817
276.394	0.08775
276.612	0.12799
276.829	0.09962
277.047	-0.11566
277.265	-0.45768
277.483	-0.29282
277.7	0.15093
277.918	-0.54621
278.136	-0.21748
278.353	0.06268
278.571	-0.1251
278.789	0.03802
279.006	0.13282
279.224	-0.32599
279.442	0.12586
279.659	-0.47718
279.877	-0.21908
280.094	-0.19898
280.312	-0.28972
280.529	-0.60405
280.747	0.13777
280.964	-0.42577
281.182	-0.01359
281.399	-0.288
281.617	-0.03455
281.834	-0.29924
282.052	-0.02372
282.269	-0.10439
282.487	-0.314
282.704	-0.19253
282.921	0.08478
283.139	0.09751
283.356	-0.28478
283.574	-0.05826
283.791	-0.01419
284.008	0.03473
284.226	0.20521
284.443	0.17282
284.66	0.08705
284.877	0.4141
285.095	-0.15014
285.312	-0.01634
285.529	-0.2013
285.746	0.1574
285.964	0.00226
286.181	0.20666
286.398	-0.10293
286.615	0.16516
286.832	-0.03787
287.05	0.04929
287.267	-0.1537
287.484	-0.03656
287.701	-0.00728
287.918	-0.03856
288.135	-0.07463
288.352	-0.09452
288.569	-0.11923
288.786	0.16868
289.003	0.1071
289.22	0.23576
289.437	0.02039
289.654	0.16304
289.871	-0.0105
290.088	0.01663
290.305	0.17429
290.522	0.21364
290.739	0.05813
290.956	0.11835
291.173	0.09169
291.39	-0.02082
291.607	0.03827
291.824	-0.11279
292.04	0.15757
292.257	0.07559
292.474	-0.15868
292.691	-0.10178
292.908	-0.01178
293.125	-0.16536
293.341	-0.04246
293.558	0.04499
293.775	-0.03197
293.992	-0.05752
294.208	-0.25652
294.425	-0.03148
294.642	-0.06573
294.858	-0.37119
295.075	-0.12347
295.292	-0.01643
295.508	0.05304
295.725	-0.13539
295.942	-0.18054
296.158	-0.04998
296.375	-0.10147
296.591	-0.01565
296.808	-0.01215
297.024	0.06219
297.241	-0.10667
297.458	-0.0707
297.674	-0.10724
297.891	-0.01889
298.107	-0.04493
298.323	-0.05201
298.54	-0.13704
298.756	-0.19279
298.973	0.01827
299.189	-0.22971
299.406	-0.13531
299.622	-0.02274
299.838	0.10747
300.055	-0.04188
300.271	-0.3105
300.487	-0.17525
300.704	-0.0414
300.92	-0.14452
301.136	-0.29684
301.353	0.10304
301.569	-0.00156
301.785	-0.24451
302.001	-0.29836
302.218	-0.18844
302.434	-0.46025
302.65	-0.11428
302.866	-0.17136
303.083	-0.21876
303.299	-0.30124
303.515	-0.24247
303.731	-0.31031
303.947	-0.30343
304.163	-0.28747
304.379	-0.37196
304.595	-0.17294
304.812	-0.16069
305.028	-0.18104
305.244	-0.22827
305.46	-0.22037
305.676	-0.26795
305.892	-0.5923
306.108	-0.53734
306.324	-0.48031
306.54	-0.45089
306.756	-0.19973
306.972	-0.01788
307.187	-0.54139
307.403	-0.34403
307.619	-0.15744
307.835	-0.38945
308.051	-0.18444
308.267	-0.35996
308.483	-0.57835
308.699	-0.30629
308.914	-0.38488
309.13	-0.55576
309.346	-0.45073
309.562	-0.22729
309.778	-0.42973
309.993	-0.28685
310.209	-0.4659
310.425	-0.33759
310.641	-0.50406
310.856	-0.44233
311.072	-0.31437
311.288	-0.44965
311.503	-0.57693
311.719	-0.51247
311.935	-0.66513
312.15	-0.47772
312.366	-0.59793
312.581	-0.50247
312.797	-0.6754
313.013	-0.53106
313.228	-0.40679
313.444	-0.2538
313.659	-0.52929
313.875	-0.57901
314.09	-0.36162
314.306	-0.22703
314.521	-0.44098
314.737	-0.58663
314.952	-0.34743
315.168	-0.39881
315.383	-0.58404
315.599	-0.41659
315.814	-0.56564
316.029	-0.65608
316.245	-0.47005
316.46	-0.12993
316.675	-0.24227
316.891	-0.45455
317.106	-0.50375
317.321	-0.12371
317.537	-0.42545
317.752	-0.63781
317.967	-0.38465
318.183	-0.45708
318.398	-0.45673
318.613	-0.7844
318.828	-0.31992
319.043	-0.47402
319.259	-0.65239
319.474	-0.56105
319.689	-0.5497
319.904	-0.53155
320.119	-0.73216
320.334	-0.39927
320.549	-0.43718
320.765	-0.76991
320.98	-0.78159
321.195	-0.19542
321.41	-0.53126
321.625	-0.48088
321.84	-0.63471
322.055	-0.77367
322.27	-0.60814
322.485	-0.30498
322.7	-0.80886
322.915	-0.39215
323.13	-0.79696
323.345	-0.86666
323.56	-0.50537
323.775	-0.48926
323.989	-0.66012
324.204	-0.59612
324.419	-0.4846
324.634	-0.656
324.849	-0.73822
325.064	-0.62041
325.279	-0.54125
325.493	-0.6586
325.708	-0.65242
325.923	-0.74966
326.138	-0.73312
326.352	-0.66595
326.567	-0.88138
326.782	-0.68639
326.997	-0.64904
327.211	-0.80054
327.426	-0.54782
327.641	-0.74396
327.855	-0.54764
328.07	-0.80767
328.285	-0.7037
328.499	-0.57726
328.714	-0.49923
328.928	-0.52579
329.143	-0.78058
329.358	-0.75919
329.572	-0.55036
329.787	-0.9033
330.001	-0.67641
330.216	-0.32444
330.43	-0.92833
330.645	-0.6973
330.859	-0.75676
331.074	-0.33085
331.288	-0.61607
331.503	-0.9561
331.717	-0.55729
331.931	-0.71622
332.146	-0.91935
332.36	-0.85095
332.575	-0.68711
332.789	-0.51075
333.003	-0.64572
333.218	-0.97146
333.432	-0.7113
333.646	-0.88177
333.86	-0.96301
334.075	-0.70981
334.289	-0.6237
334.503	-0.68078
334.717	-1.20202
334.932	-0.47994
335.146	-0.66057
335.36	-0.67443
335.574	-0.88434
335.788	-0.8083
336.003	-0.8574
336.217	-1.13271
336.431	-0.63038
336.645	-1.10162
336.859	-0.68794
337.073	-1.13339
337.287	-1.0284
337.501	-0.75979
337.715	-0.90023
337.929	-0.87123
338.143	-0.86503
338.357	-0.86214
338.571	-0.96735
338.785	-1.09703
338.999	-0.5415
339.213	-0.78571
339.427	-1.16521
339.641	-0.83739
339.855	-0.85641
340.069	-0.99313
340.283	-1.20056
340.497	-1.2
340.711	-1.13454
340.924	-1.02382
341.138	-1.09581
341.352	-1.01842
341.566	-1.01173
341.78	-1.16973
341.993	-0.84873
342.207	-1.2272
342.421	-1.03152
342.635	-1.08875
342.848	-1.03812
343.062	-0.79629
343.276	-1.09007
343.49	-0.79528
343.703	-0.98668
343.917	-1.15912
344.131	-1.03602
344.344	-0.84817
344.558	-1.27582
344.771	-0.70176
344.985	-1.10958
345.199	-1.12674
345.412	-1.05202
345.626	-1.10664
345.839	-0.99716
346.053	-1.14545
346.266	-1.25664
346.48	-1.22036
346.693	-1.08882
346.907	-1.19426
347.12	-1.17317
347.334	-0.93598
347.547	-1.16796
347.76	-1.24763
347.974	-0.99909
348.187	-1.12187
348.401	-1.29988
348.614	-0.96755
348.827	-1.2526
349.041	-1.08045
349.254	-0.98073
349.467	-1.2506
349.681	-1.1856
349.894	-1.03005
350.107	-1.06775
350.32	-1.42177
350.534	-1.08168
350.747	-1.26428
350.96	-1.08224
351.173	-1.17157
351.386	-1.15081
351.6	-1.12172
351.813	-1.41823
352.026	-1.00544
352.239	-1.20435
352.452	-1.14266
352.665	-1.42893
352.878	-1.14506
353.092	-1.32631
353.305	-1.31532
353.518	-0.93377
353.731	-1.12732
353.944	-1.09669
354.157	-1.1912
354.37	-1.17889
354.583	-1.02781
354.796	-1.37674
355.009	-1.31452
355.222	-1.58746
355.435	-1.23791
355.647	-1.3803
355.86	-1.33875
356.073	-1.42232
356.286	-1.16089
356.499	-1.40366
356.712	-1.5148
356.925	-1.39588
357.138	-1.3983
357.35	-1.47367
357.563	-1.56222
357.776	-1.40625
357.989	-1.51181
358.201	-1.31431
358.414	-1.43283
358.627	-1.64529
358.84	-1.55682
359.052	-1.22687
359.265	-1.37605
359.478	-1.29386
359.69	-1.30169
359.903	-1.43774
360.116	-1.52206
360.328	-1.47144
360.541	-1.4888
360.753	-1.67403
360.966	-1.6154
361.179	-1.60975
361.391	-1.50327
361.604	-1.55277
361.816	-1.54094
362.029	-1.78123
362.241	-1.6516
362.454	-1.69877
362.666	-1.59109
362.879	-1.76087
363.091	-1.56015
363.304	-1.67356
363.516	-1.34889
363.728	-1.52435
363.941	-1.52119
364.153	-1.82059
364.366	-1.63758
364.578	-1.39543
364.79	-1.46767
365.003	-1.50361
365.215	-1.29333
365.427	-1.48994
365.639	-1.34896
365.852	-1.45592
366.064	-1.34037
366.276	-1.51424
366.488	-1.51074
366.701	-1.41194
366.913	-1.31551
367.125	-1.49761
367.337	-1.36445
367.549	-1.42036
367.762	-1.33872
367.974	-1.32779
368.186	-1.6129
368.398	-1.27605
368.61	-1.23573
368.822	-1.24636
369.034	-1.21192
369.246	-1.33045
369.458	-1.47009
369.67	-1.24744
369.882	-1.41919
370.094	-1.17638
370.306	-1.20115
370.518	-1.04144
370.73	-1.26201
370.942	-1.52496
371.154	-1.26276
371.366	-1.49005
371.578	-1.41772
371.79	-1.48515
372.002	-1.28085
372.214	-1.57523
372.425	-1.30728
372.637	-1.55268
372.849	-1.31832
373.061	-1.27324
373.273	-1.35984
373.484	-1.30569
373.696	-1.46382
373.908	-1.21986
374.12	-1.35778
374.331	-1.20547
374.543	-1.20328
374.755	-1.26475
374.967	-1.30311
375.178	-1.54777
375.39	-1.15637
375.602	-1.42366
375.813	-1.10593
376.025	-1.33772
376.236	-1.14266
376.448	-1.21728
376.66	-1.15925
376.871	-1.12381
377.083	-1.23803
377.294	-1.60618
377.506	-1.26867
377.717	-1.23967
377.929	-1.06498
378.14	-1.20076
378.352	-1.18069
378.563	-1.39793
378.775	-1.35828
378.986	-1.06511
379.197	-1.20081
379.409	-1.0673
379.62	-1.15551
379.832	-1.20504
380.043	-1.16919
380.254	-1.16903
380.466	-1.19234
380.677	-1.19552
380.888	-1.08114
381.1	-1.15242
381.311	-1.40243
381.522	-1.26069
381.733	-1.19929
381.945	-1.17592
382.156	-1.18417
382.367	-1.08632
382.578	-1.18686
382.789	-1.08837
383.001	-0.92679
383.212	-1.23854
383.423	-0.94823
383.634	-1.07757
383.845	-1.10097
384.056	-0.98441
384.267	-1.04437
384.478	-1.11907
384.69	-0.91412
384.901	-0.93265
385.112	-0.79542
385.323	-1.25331
385.534	-0.84447
385.745	-0.98925
385.956	-0.86824
386.167	-0.95878
386.378	-0.81051
386.588	-0.92612
386.799	-0.70686
387.01	-0.81087
387.221	-0.8882
387.432	-0.87697
387.643	-0.71687
387.854	-0.60399
388.065	-0.75685
388.275	-0.79457
388.486	-0.7789
388.697	-0.80873
388.908	-0.78692
389.119	-0.87203
389.329	-0.78667
389.54	-0.55247
389.751	-0.72674
389.962	-0.56916
390.172	-0.47927
390.383	-0.6102
390.594	-0.63942
390.804	-0.58571
391.015	-0.7461
391.226	-0.53098
391.436	-0.57584
391.647	-0.51522
391.858	-0.56435
392.068	-0.56898
392.279	-0.62699
392.489	-0.67981
392.7	-0.57744
392.91	-0.54126
393.121	-0.55448
393.331	-0.41936
393.542	-0.50453
393.752	-0.4879
393.963	-0.33628
394.173	-0.21584
394.384	-0.36784
394.594	-0.41096
394.804	-0.33916
395.015	-0.12122
395.225	-0.41753
395.436	-0.27466
395.646	-0.21081
395.856	-0.38033
396.067	-0.19304
396.277	-0.16273
396.487	-0.0696
396.697	-0.22434
396.908	-0.40381
397.118	0.10952
397.328	-0.14625
397.538	-0.10992
397.749	-0.17395
397.959	-0.02722
398.169	-0.15228
398.379	0.14256
398.589	-0.0691
398.8	-0.11006
399.01	-0.05883
399.22	0.14859
399.43	-0.02265
399.64	0.03315
399.85	0.1153
400.06	0.06325
400.27	-0.09508
400.48	0.35766
400.69	0.14147
400.9	0.28696
401.11	0.0119
401.32	0.14018
401.53	0.19227
401.74	0.1628
401.95	0.18913
402.16	0.2048
402.37	0.26656
402.58	0.3248
402.79	0.23989
403	0.48079
403.209	0.31451
403.419	0.24867
403.629	0.34764
403.839	0.29381
404.049	0.55844
404.258	0.59473
404.468	0.4927
404.678	0.4724
404.888	0.51196
405.097	0.47828
405.307	0.47505
405.517	0.32971
405.727	0.32475
405.936	0.58692
406.146	0.48036
406.356	0.51021
406.565	0.59659
406.775	0.58958
406.984	0.55885
407.194	0.43808
407.404	0.48771
407.613	0.57311
407.823	0.41624
408.032	0.54139
408.242	0.54696
408.451	0.57999
408.661	0.65849
408.87	0.65412
409.08	0.7939
409.289	0.74152
409.499	0.74003
409.708	0.74399
409.918	0.8184
410.127	0.89855
410.336	0.69333
410.546	0.85018
410.755	0.76913
410.964	0.79025
411.174	0.83309
411.383	0.8141
411.592	0.63643
411.802	0.797
412.011	0.82615
412.22	0.71612
412.429	0.76972
412.639	0.64823
412.848	0.76341
413.057	1.0329
413.266	0.8234
413.475	0.91806
413.685	0.82389
413.894	0.86587
414.103	0.95404
414.312	0.96605
414.521	0.8928
414.73	1.08915
414.939	0.73096
415.148	0.95522
415.357	0.95207
415.566	1.05754
415.776	0.87202
415.985	1.00189
416.194	1.13465
416.403	1.18328
416.611	1.1303
416.82	1.16081
417.029	1.04949
417.238	1.24995
417.447	1.27266
417.656	1.20767
417.865	1.24548
418.074	1.2987
418.283	1.28637
418.492	1.21232
418.7	1.16756
418.909	1.40914
419.118	1.27835
419.327	1.35766
419.536	1.38249
419.744	1.46832
419.953	1.59565
420.162	1.69711
420.371	1.50236
420.579	1.61677
420.788	1.75887
420.997	1.64288
421.205	1.90645
421.414	1.6025
421.623	1.66376
421.831	1.75418
422.04	1.71257
422.249	1.66184
422.457	1.57812
422.666	1.58386
422.874	1.53106
423.083	1.75558
423.291	1.63931
423.5	1.75652
423.708	1.82029
423.917	1.89328
424.125	1.86423
424.334	1.94037
424.542	1.80201
424.751	1.85516
424.959	1.77107
425.167	1.65114
425.376	1.48081
425.584	1.56559
425.793	1.43692
426.001	1.43261
426.209	1.23272
426.418	1.32827
426.626	1.38865
426.834	1.38475
427.042	1.36959
427.251	1.34648
427.459	1.44285
427.667	1.31117
427.875	1.3077
428.084	1.3765
428.292	1.3897
428.5	1.49583
428.708	1.36098
428.916	1.42402
429.124	1.42991
429.333	1.53184
429.541	1.44432
429.749	1.66563
429.957	1.36584
430.165	1.47752
430.373	1.54525
430.581	1.60653
430.789	1.4445
430.997	1.24183
431.205	1.44988
431.413	1.66962
431.621	1.36981
431.829	1.71603
432.037	1.59366
432.245	1.68515
432.453	1.55257
432.661	1.59
432.869	1.73306
433.076	1.69533
433.284	1.73089
433.492	1.62706
433.7	1.72119
433.908	1.5034
434.116	1.65378
434.323	1.66015
434.531	1.55395
434.739	1.54498
434.947	1.62949
435.154	1.48748
435.362	1.36072
435.57	1.45768
435.778	1.63278
435.985	1.52197
436.193	1.54865
436.401	1.71259
436.608	1.47445
436.816	1.58734
437.023	1.66263
437.231	1.71707
437.439	1.66708
437.646	1.51865
437.854	1.60171
438.061	1.5803
438.269	1.64141
438.476	1.82434
438.684	1.64463
438.891	1.68931
439.099	1.64406
439.306	1.71443
439.514	1.59897
439.721	1.777
439.929	1.68902
440.136	1.77869
440.343	1.82138
440.551	1.8805
440.758	1.75514
440.965	1.79997
441.173	1.65385
441.38	1.52858
441.587	1.63168
441.795	1.57882
442.002	1.45354
442.209	1.56328
442.416	1.5053
442.624	1.72585
442.831	1.49283
443.038	1.5859
443.245	1.66023
443.452	1.66613
443.66	1.66222
443.867	1.69802
444.074	1.62776
444.281	1.84491
444.488	1.68138
444.695	1.75042
444.902	1.63371
445.109	1.89221
445.316	1.77902
445.523	1.94386
445.73	2.02377
445.937	1.97145
446.144	2.05862
446.351	2.09336
446.558	1.9579
446.765	2.26614
446.972	2.03667
447.179	2.07494
447.386	1.96161
447.593	1.7611
447.8	1.60497
448.007	1.57948
448.214	1.64018
448.42	1.52951
448.627	1.56323
448.834	1.73692
449.041	1.57268
449.248	1.57105
449.454	1.58518
449.661	1.82018
449.868	1.51095
450.075	1.49831
450.281	1.52542
450.488	1.71954
450.695	1.55017
450.901	1.67792
451.108	1.62474
451.315	1.66799
451.521	1.69845
451.728	1.5718
451.935	1.67442
452.141	1.70236
452.348	1.61644
452.554	1.53152
452.761	1.66827
452.967	1.74491
453.174	1.48132
453.38	1.66795
453.587	1.61345
453.793	1.71603
454	1.71753
454.206	1.57293
454.413	1.62598
454.619	1.61271
454.825	1.57833
455.032	1.6732
455.238	1.46819
455.445	1.45816
455.651	1.51301
455.857	1.40811
456.064	1.70749
456.27	1.48822
456.476	1.67267
456.682	1.74519
456.889	1.75565
457.095	1.69123
457.301	1.41798
457.507	1.77468
457.714	1.60664
457.92	1.77952
458.126	1.79576
458.332	1.79872
458.538	1.67404
458.744	1.84348
458.951	1.96547
459.157	2.05289
459.363	2.04685
459.569	2.03942
459.775	1.79508
459.981	2.046
460.187	1.84158
460.393	1.87277
460.599	1.81735
460.805	1.90693
461.011	1.45517
461.217	1.49368
461.423	1.56164
461.629	1.41723
461.835	1.74927
462.041	1.62938
462.247	1.5539
462.453	1.62515
462.658	1.4882
462.864	1.49579
463.07	1.63248
463.276	1.5443
463.482	1.77082
463.688	1.68197
463.893	1.61317
464.099	1.57658
464.305	1.65397
464.511	1.58116
464.716	1.51616
464.922	1.74025
465.128	1.52376
465.333	1.75675
465.539	1.64885
465.745	1.67752
465.95	1.42669
466.156	1.68173
466.362	1.58193
466.567	1.60536
466.773	1.65722
466.978	1.63804
467.184	1.71107
467.389	1.61281
467.595	1.60062
467.8	1.5949
468.006	1.53541
468.211	1.50058
468.417	1.52208
468.622	1.60657
468.828	1.64233
469.033	1.34723
469.239	1.64216
469.444	1.62844
469.649	1.71937
469.855	1.57326
470.06	1.58107
470.266	1.61337
470.471	1.53313
470.676	1.44549
470.881	1.64827
471.087	1.68163
471.292	1.48006
471.497	1.65552
471.703	1.52108
471.908	1.63219
472.113	1.66594
472.318	1.72885
472.523	1.61394
472.729	1.67167
472.934	1.58331
473.139	1.58367
473.344	1.51317
473.549	1.54162
473.754	1.64009
473.959	1.59036
474.164	1.21276
474.369	1.75324
474.575	1.33644
474.78	1.62043
474.985	1.58602
475.19	1.66538
475.395	1.79312
475.6	1.56876
475.804	1.45886
476.009	1.72861
476.214	1.66268
476.419	1.89486
476.624	1.68013
476.829	1.64078
477.034	1.6836
477.239	1.72422
477.444	1.66006
477.648	1.81994
477.853	1.70701
478.058	1.69547
478.263	1.69729
478.468	1.84429
478.672	1.61852
478.877	1.80971
479.082	1.81366
479.287	1.77523
479.491	1.56925
479.696	1.64852
479.901	1.52733
480.105	1.61009
480.31	1.71492
480.515	1.83892
480.719	1.77854
480.924	1.83234
481.128	1.85201
481.333	1.90129
481.538	1.82755
481.742	1.88515
481.947	1.98456
482.151	2.39477
482.356	2.5609
482.56	3.3419
482.765	4.17244
482.969	4.93158
483.174	5.61493
483.378	6.03941
483.582	5.98201
483.787	5.84282
483.991	5.98779
484.196	5.76173
484.4	5.42109
484.604	4.9639
484.809	3.88909
485.013	3.40473
485.217	2.59804
485.422	2.32669
485.626	2.4041
485.83	2.61462
486.034	2.75754
486.239	3.09359
486.443	3.48763
486.647	3.7942
486.851	3.91381
487.055	4.0586
487.26	4.31141
487.464	4.39986
487.668	4.21147
487.872	3.93101
488.076	3.75227
488.28	3.84503
488.484	3.05051
488.688	2.61203
488.892	2.52871
489.096	2.11893
489.3	2.00889
489.504	1.95668
489.708	1.7115
489.912	2.00118
490.116	2.07201
490.32	2.46846
490.524	2.74322
490.728	3.12545
490.932	3.51439
491.136	3.6059
491.34	3.63814
491.544	3.41018
491.748	3.17522
491.951	3.20331
492.155	2.92783
492.359	2.71653
492.563	2.28104
492.767	1.85809
492.97	1.49492
493.174	1.33826
493.378	1.32468
493.582	1.44066
493.785	1.52874
493.989	1.47505
494.193	1.63543
494.396	1.75243
494.6	1.66248
494.804	1.76958
495.007	1.71554
495.211	1.67698
495.414	1.77114
495.618	1.99757
495.822	1.89784
496.025	1.99471
496.229	1.73613
496.432	1.83323
496.636	1.75153
496.839	1.8779
497.043	1.77106
497.246	1.87005
497.45	1.74166
497.653	1.78254
497.856	1.66918
498.06	1.64181
498.263	1.63905
498.467	1.80725
498.67	1.88521
498.873	1.73867
499.077	1.7971
499.28	1.54962
499.483	1.82312
499.686	1.68061
499.89	1.77271
500.093	1.79318
500.296	1.70116
500.499	1.71711
500.703	1.67473
500.906	1.75238
501.109	1.68992
501.312	1.55904
501.515	1.71401
501.719	1.57427
501.922	1.65684
502.125	1.74165
502.328	1.67093
502.531	1.77731
502.734	1.69039
502.937	1.87649
503.14	1.76111
503.343	1.8039
503.546	1.68478
503.749	1.95287
503.952	1.67652
504.155	1.78002
504.358	1.74665
504.561	1.76764
504.764	1.71147
504.967	1.82025
505.17	1.79647
505.373	1.81019
505.576	1.61754
505.778	1.80844
505.981	1.84161
506.184	1.70968
506.387	1.58115
506.59	1.99442
506.793	1.49218
506.995	1.83232
507.198	1.72044
507.401	1.85019
507.604	1.80792
507.806	1.96525
508.009	1.73097
508.212	1.96778
508.414	1.80689
508.617	1.85869
508.82	1.79619
509.022	1.82847
509.225	1.87808
509.427	1.83069
509.63	1.88341
509.833	1.58938
510.035	1.77451
510.238	1.75866
510.44	1.67144
510.643	1.63597
510.845	1.80195
511.048	1.79727
511.25	1.69308
511.453	1.88781
511.655	1.77985
511.858	1.81522
512.06	1.90757
512.262	1.68918
512.465	1.80781
512.667	1.63003
512.869	1.74749
513.072	1.84831
513.274	1.68109
513.476	1.68136
513.679	1.70259
513.881	1.64457
514.083	1.74646
514.286	1.68678
514.488	1.71051
514.69	1.49256
514.892	1.6313
515.094	1.75163
515.297	1.78542
515.499	1.7769
515.701	1.88822
515.903	1.91162
516.105	1.81206
516.307	1.83884
516.509	1.76218
516.711	1.86885
516.913	1.89033
517.116	2.12421
517.318	1.94764
517.52	2.12436
517.722	2.00097
517.924	1.93631
518.126	1.90507
518.328	1.81727
518.529	1.71907
518.731	1.98
518.933	1.71973
519.135	1.81646
519.337	1.79732
519.539	1.72257
519.741	1.75587
519.943	1.7832
520.145	1.75677
520.346	1.7621
520.548	1.65125
520.75	1.62907
520.952	1.69547
521.153	1.57501
521.355	1.83431
521.557	1.87215
521.759	1.63809
521.96	1.81675
522.162	1.48143
522.364	1.81663
522.565	1.53249
522.767	1.49821
522.969	1.72856
523.17	1.74065
523.372	1.84218
523.573	1.8081
523.775	1.84029
523.977	2.0258
524.178	2.07209
524.38	2.06213
524.581	2.12772
524.783	1.87155
524.984	2.12916
525.186	2.17216
525.387	2.05274
525.589	2.00308
525.79	1.99607
525.991	2.00881
526.193	2.01835
526.394	1.8823
526.596	2.00748
526.797	2.03478
526.998	2.20909
527.2	2.62619
527.401	3.13171
527.602	3.60858
527.803	4.23075
528.005	4.52985
528.206	4.60964
528.407	4.40903
528.608	4.42965
528.81	4.22002
529.011	4.03018
529.212	3.8154
529.413	3.36725
529.614	2.72547
529.815	2.23248
530.017	1.84875
530.218	1.83621
530.419	1.76916
530.62	1.64973
530.821	1.69915
531.022	1.88985
531.223	1.85481
531.424	1.80896
531.625	1.92239
531.826	2.06331
532.027	2.34669
532.228	2.645
532.429	2.71518
532.63	2.81288
532.831	2.80531
533.032	2.88161
533.233	2.60855
533.433	2.66058
533.634	2.49763
533.835	2.2887
534.036	2.09061
534.237	1.80182
534.438	1.57906
534.638	1.40331
534.839	1.59996
535.04	1.59505
535.241	1.72354
535.441	1.98619
535.642	2.01834
535.843	1.97775
536.043	2.02982
536.244	1.86044
536.445	1.97246
536.645	1.84206
536.846	1.90535
537.047	1.74822
537.247	1.75925
537.448	1.73994
537.648	1.63877
537.849	1.50103
538.049	1.33812
538.25	1.58872
538.451	1.55525
538.651	1.70452
538.851	1.93956
539.052	1.67399
539.252	1.77334
539.453	1.89111
539.653	1.9612
539.854	2.08041
540.054	2.16292
540.254	2.50866
540.455	2.73028
540.655	2.92272
540.855	3.01524
541.056	2.94818
541.256	2.98725
541.456	2.92831
541.657	2.95327
541.857	2.64263
542.057	2.49571
542.257	2.34599
542.458	2.07003
542.658	1.87052
542.858	1.56926
543.058	1.53232
543.258	1.67764
543.458	1.72845
543.659	1.75879
543.859	1.67175
544.059	1.61801
544.259	1.64428
544.459	1.50881
544.659	1.76823
544.859	1.91773
545.059	1.64
545.259	1.9397
545.459	1.69903
545.659	1.86762
545.859	1.87214
546.059	1.91983
546.259	1.75106
546.459	1.67993
546.659	1.57702
546.859	1.84696
547.059	1.51043
547.258	1.78412
547.458	1.56986
547.658	1.58625
547.858	1.51844
548.058	1.32814
548.258	1.37895
548.457	1.55843
548.657	1.64286
548.857	1.54119
549.057	1.29193
549.256	1.43466
549.456	1.41591
549.656	1.35697
549.855	1.54172
550.055	1.46996
550.255	1.74679
550.454	1.28858
550.654	1.51217
550.853	1.70957
551.053	1.41772
551.253	1.46847
551.452	1.62774
551.652	1.86444
551.851	1.38838
552.051	1.79695
552.25	1.71184
552.45	1.59691
552.649	1.71333
552.849	1.62204
553.048	1.65507
553.248	1.61579
553.447	1.32748
553.646	1.36771
553.846	1.57451
554.045	1.62397
554.244	1.28404
554.444	1.33741
554.643	1.22415
554.842	1.49452
555.042	1.24416
555.241	1.32905
555.44	1.31908
555.64	1.64907
555.839	1.52593
556.038	1.51014
556.237	1.28551
556.436	1.34339
556.636	1.607
556.835	1.65229
557.034	1.67514
557.233	1.4205
557.432	1.36978
557.631	1.80337
557.83	1.52354
558.029	1.61149
558.228	1.57115
558.427	1.26951
558.626	1.49176
558.825	1.48043
559.024	1.6663
559.223	1.51326
559.422	1.49348
559.621	1.69392
559.82	1.26576
560.019	1.4665
560.218	1.63933
560.417	1.53843
560.616	1.55647
560.815	1.57937
561.014	1.24736
561.212	1.51762
561.411	1.67775
561.61	1.53566
561.809	1.67372
562.008	1.33429
562.206	1.48081
562.405	1.3275
562.604	1.30906
562.803	1.75465
563.001	1.4936
563.2	1.35363
563.399	1.61796
563.597	1.40319
563.796	1.62216
563.995	1.42821
564.193	1.62034
564.392	1.61077
564.59	1.73361
564.789	1.73826
564.988	1.8662
565.186	1.75638
565.385	1.76875
565.583	1.82121
565.782	1.73002
565.98	1.73271
566.179	1.54181
566.377	1.74365
566.575	1.61685
566.774	1.69676
566.972	1.60121
567.171	1.40567
567.369	1.559
567.567	1.65214
567.766	1.55258
567.964	1.43056
568.162	1.6652
568.361	1.44979
568.559	1.48132
568.757	1.75265
568.956	1.69641
569.154	1.44941
569.352	1.61271
569.55	1.67064
569.748	1.57658
569.947	1.72539
570.145	1.55027
570.343	1.7836
570.541	1.90238
570.739	1.73043
570.937	1.72338
571.135	1.63047
571.333	1.58796
571.532	1.9246
571.73	1.74819
571.928	1.44864
572.126	1.63065
572.324	1.83927
572.522	1.53079
572.72	1.68671
572.918	1.61586
573.116	1.83158
573.313	1.77766
573.511	1.36592
573.709	1.7563
573.907	1.79245
574.105	1.70074
574.303	1.90385
574.501	1.79141
574.699	1.64592
574.896	1.6222
575.094	1.70863
575.292	1.54203
575.49	1.9742
575.688	1.58634
575.885	1.41481
576.083	1.78586
576.281	2.06475
576.478	1.6603
576.676	1.45684
576.874	1.62655
577.071	1.6028
577.269	1.60028
577.467	1.66977
577.664	1.69572
577.862	1.74631
578.059	1.80347
578.257	1.61087
578.455	1.44679
578.652	1.5117
578.85	1.48169
579.047	1.77841
579.245	1.39234
579.442	1.51513
579.64	1.41078
579.837	1.168
580.034	1.33826
580.232	1.29852
580.429	1.0803
580.627	1.3747
580.824	1.79568
581.021	1.56413
581.219	1.3516
581.416	1.33178
581.613	1.70141
581.811	1.24413
582.008	1.66719
582.205	1.17929
582.402	1.45142
582.6	1.23971
582.797	1.36109
582.994	1.41452
583.191	1.08356
583.388	1.39444
583.586	1.54963
583.783	1.30029
583.98	1.33271
584.177	1.75093
584.374	1.4414
584.571	1.34836
584.768	1.18666
584.965	1.61309
585.162	1.64438
585.359	1.77348
585.556	1.56439
585.753	1.41169
585.95	1.22276
586.147	1.65052
586.344	1.38414
586.541	1.38834
586.738	1.51953
586.935	1.30238
587.132	1.19788
587.329	1.60731
587.526	1.12543
587.722	1.3888
587.919	0.96356
588.116	1.73517
588.313	1.68557
588.51	1.71929
588.706	1.68344
588.903	1.6296
589.1	1.80396
589.297	1.90411
589.493	1.60757
589.69	1.65267
589.887	1.65334
590.083	1.1453
590.28	1.58671
590.477	1.39671
590.673	1.36248
590.87	1.6644
591.067	1.55109
591.263	1.13202
591.46	1.25417
591.656	1.42066
591.853	1.58933
592.049	1.67442
592.246	1.58049
592.442	1.42212
592.639	1.9985
592.835	1.78373
593.032	1.50629
593.228	1.80496
593.425	1.34167
593.621	1.68141
593.817	1.92764
594.014	2.01995
594.21	1.59946
594.406	1.63122
594.603	1.57268
594.799	1.34665
594.995	1.43449
595.192	1.40396
595.388	1.61127
595.584	1.80029
595.78	1.80954
595.977	2.20373
596.173	1.81045
596.369	1.9478
596.565	2.06375
596.761	1.77433
596.957	2.16702
597.154	1.84509
597.35	2.01887
597.546	1.66551
597.742	1.59035
597.938	1.71318
598.134	1.50503
598.33	1.56585
598.526	1.53631
598.722	1.72865
598.918	1.66156
599.114	1.60924
599.31	1.50435
599.506	1.43202
599.702	1.59479
599.898	1.13354
600.094	1.68587
600.29	1.63473
600.485	1.54712
600.681	1.96074
600.877	1.27782
601.073	1.47602
601.269	1.49129
601.465	1.94748
601.66	1.59129
601.856	1.54743
602.052	2.11263
602.248	1.86869
602.443	1.56486
602.639	1.79187
602.835	1.80164
603.03	1.9597
603.226	1.91242
603.422	2.10398
603.617	1.87265
603.813	1.82795
604.009	2.09134
604.204	1.66471
604.4	1.88936
604.595	1.93403
604.791	1.73172
604.986	1.7848
605.182	1.79864
605.377	1.76098
605.573	1.40679
605.768	1.57715
605.964	1.19888
606.159	1.68998
606.355	1.39961
606.55	1.90192
606.746	1.15451
606.941	1.95291
607.136	1.55531
607.332	1.38922
607.527	1.58998
607.722	1.72963
607.918	1.84743
608.113	2.18376
608.308	1.65794
608.503	1.80609
608.699	1.9271
608.894	1.97443
609.089	1.73041
609.284	1.56517
609.479	1.69055
609.675	1.70876
609.87	1.91381
610.065	1.59647
610.26	1.5702
610.455	1.81246
610.65	1.39987
610.845	1.67713
611.04	1.66914
611.235	1.45405
611.43	1.56261
611.625	1.32281
611.82	1.22808
612.015	1.34699
612.21	1.26048
612.405	1.27884
612.6	1.17603
612.795	0.82428
612.99	1.32291
613.185	1.45135
613.38	1.64896
613.575	1.59669
613.77	1.11922
613.965	1.09337
614.159	1.365
614.354	1.41519
614.549	1.13631
614.744	1.74211
614.938	1.1366
615.133	1.52767
615.328	1.79082
615.523	1.65649
615.717	1.52933
615.912	1.63452
616.107	1.53268
616.301	1.28178
616.496	1.85178
616.691	1.62062
616.885	1.19813
617.08	1.74688
617.274	1.94122
617.469	1.26681
617.664	1.5279
617.858	1.30221
618.053	1.49053
618.247	1.48632
618.442	1.58042
618.636	1.422
618.831	1.63384
619.025	1.66815
619.219	1.27854
619.414	1.19822
619.608	1.78432
619.803	1.15078
619.997	1.62663
620.191	1.51971
620.386	1.56755
620.58	1.35534
620.774	1.13743
620.969	1.2545
621.163	1.42336
621.357	0.89059
621.551	1.7077
621.746	1.61853
621.94	1.50683
622.134	1.25354
622.328	1.44847
622.522	1.20226
622.716	1.41328
622.911	1.78179
623.105	1.39167
623.299	1.56196
623.493	1.52669
623.687	1.44234
623.881	1.68131
624.075	1.56943
624.269	1.28345
624.463	2.17046
624.657	1.50482
624.851	1.52788
625.045	0.68502
625.239	1.54983
625.433	1.69943
625.627	2.0185
625.821	1.91933
626.015	1.60164
626.209	1.6038
626.403	1.52068
626.596	1.53077
626.79	1.85311
626.984	1.73709
627.178	1.5069
627.372	1.26105
627.565	1.43935
627.759	1.35715
627.953	1.55985
628.147	1.47815
628.34	1.11591
628.534	1.76547
628.728	1.42497
628.921	1.50039
629.115	1.36125
629.309	1.60442
629.502	1.2614
629.696	1.38393
629.89	0.84435
630.083	1.36899
630.277	1.13906
630.47	1.8031
630.664	1.07514
630.857	0.93307
631.051	1.57313
631.244	1.97472
631.438	2.17115
631.631	1.1901
631.825	1.66523
632.018	1.57077
632.212	1.65782
632.405	1.70278
632.598	1.19179
632.792	1.72208
632.985	1.54605
633.178	1.82216
633.372	1.57054
633.565	1.64631
633.758	1.19113
633.952	1.77863
634.145	1.89854
634.338	0.48355
634.531	1.44624
634.724	0.85004
634.918	1.27107
635.111	1.80642
635.304	1.34119
635.497	1.69064
635.69	1.61045
635.883	1.55538
636.077	1.67725
636.27	1.63517
636.463	1.61267
636.656	0.9908
636.849	1.86149
637.042	1.67518
637.235	1.33155
637.428	1.77983
637.621	1.53106
637.814	1.87215
638.007	1.2062
638.2	1.47968
638.393	1.66652
638.586	1.45577
638.778	1.58887
638.971	1.60135
639.164	1.3911
639.357	0.64068
639.55	1.7025
639.743	1.60377
639.935	1.30953
640.128	1.43778
640.321	0.61113
640.514	1.38892
640.707	1.69969
640.899	0.87889
641.092	1.11287
641.285	1.75627
641.477	0.85247
641.67	1.44436
641.863	0.85361
642.055	1.63477
642.248	1.45298
642.441	1.27755
642.633	1.59598
642.826	1.74864
643.018	0.79375
643.211	1.0528
643.403	1.53813
643.596	1.54527
643.788	1.63602
643.981	1.67658
644.173	1.8484
644.366	1.57516
644.558	1.17668
644.751	1.42537
644.943	1.56068
645.135	1.11574
645.328	1.84687
645.52	1.46438
645.712	1.52673
645.905	1.84623
646.097	1.265
646.289	1.44304
646.482	1.73934
646.674	0.47075
646.866	1.01867
647.058	1.24729
647.251	1.59199
647.443	1.39737
647.635	1.00348
647.827	1.00217
648.019	1.60801
648.211	1.09959
648.404	1.18643
648.596	1.36593
648.788	1.37583
648.98	1.19855
649.172	1.43978
649.364	1.39843
649.556	1.34052
649.748	2.91131
649.94	1.76677
650.132	0.75549
650.324	0.94388
650.516	1.49155
650.708	1.3817
650.9	1.59837
651.092	1.69144
651.284	1.89903
651.476	0.57477
651.667	1.58934
651.859	1.41668
652.051	2.01547
652.243	1.64082
652.435	1.83949
652.627	0.79613
652.818	1.96939
653.01	1.26781
653.202	1.38299
653.394	1.42015
653.585	0.78909
653.777	1.21601
653.969	1.16085
654.16	2.42818
654.352	2.11944
654.544	1.21409
654.735	2.23609
654.927	2.15752
655.118	2.07819
655.31	0.99859
655.502	1.90826
655.693	2.19868
655.885	1.9781
656.076	1.38727
656.268	1.27937
656.459	1.33262
656.651	1.64169
656.842	1.76047
657.034	1.19761
657.225	1.52513
657.416	1.4119
657.608	1.3655
657.799	1.26043
657.99	1.96038
658.182	2.27168
658.373	1.68159
658.564	1.81022
658.756	1.65175
658.947	1.51555
659.138	1.49245
659.33	1.51111
659.521	1.42255
659.712	1.75366
659.903	1.60296
660.094	1.64191
660.286	0.75966
660.477	2.11784
660.668	1.10696
660.859	2.01044
661.05	1.39714
661.241	1.70666
661.432	1.39763
661.623	1.20166
661.814	1.16113
662.006	1.18359
662.197	0.90213
662.388	0.83872
662.579	1.15715
662.77	1.40179
662.96	1.48116
663.151	1.1503
663.342	1.57298
663.533	1.02203
663.724	1.09684
663.915	1.42602
664.106	1.01635
664.297	2.52969
664.488	0.56678
664.678	1.26545
664.869	1.61709
665.06	1.39797
665.251	1.57618
665.442	1.57534
665.632	1.77597
665.823	2.0671
666.014	1.53136
666.204	1.60506
666.395	1.5024
666.586	1.61569
666.776	1.85647
666.967	0.791
667.158	1.62494
667.348	1.2121
667.539	1.65495
667.729	0.67414
667.92	1.95502
668.111	1.70927
668.301	0.95268
668.492	1.42039
668.682	1.74751
668.873	1.2061
669.063	1.57923
669.253	1.42447
669.444	1.29653
669.634	1.44696
669.825	1.47247
670.015	1.68446
670.206	1.26938
670.396	1.36743
670.586	1.54713
670.777	1.60621
670.967	1.25806
671.157	1.71886
671.347	1.01135
671.538	1.63827
671.728	2.42103
671.918	2.0855
672.108	1.6974
672.299	1.88552
672.489	1.58061
672.679	1.27011
672.869	1.54825
673.059	1.30226
673.249	0.17951
673.44	1.46349
673.63	0.81918
673.82	2.33869
674.01	1.45958
674.2	0.85044
674.39	1.78628
674.58	1.83732
674.77	1.31416
674.96	2.31973
675.15	0.97028
675.34	0.46258
675.53	2.1332
675.72	1.71689
675.91	1.36336
676.099	1.4628
676.289	1.57615
676.479	1.2575
676.669	1.84582
676.859	1.61106
677.049	2.4426
677.238	1.94557
677.428	0.36229
677.618	2.60151
677.808	1.49784
677.997	2.0286
678.187	1.77646
678.377	1.57233
678.567	2.39259
678.756	2.3814
678.946	2.47036
679.136	2.07667
679.325	1.49371
679.515	1.8238
679.704	1.68142
679.894	2.13696
680.084	1.74827
680.273	1.67785
680.463	1.10089
680.652	1.51289
680.842	2.02227
681.031	2.74812
681.221	1.53833
681.41	1.8346
681.6	2.21797
681.789	2.23309
681.978	1.49099
682.168	1.61472
682.357	1.78793
682.547	1.41885
682.736	1.49786
682.925	1.29404
683.115	1.72071
683.304	1.1223
683.493	1.24377
683.682	0.94305
683.872	1.15291
684.061	2.76023
684.25	1.93392
684.439	1.91652
684.629	1.54061
684.818	2.3841
685.007	1.43792
685.196	2.44089
685.385	2.17013
685.574	2.02523
685.763	1.95128
685.952	1.47855
686.142	1.75291
686.331	1.93783
686.52	2.35826
686.709	2.01661
686.898	1.9238
687.087	2.07275
687.276	1.43797
687.465	1.9517
687.654	2.38954
687.842	1.79448
688.031	1.72659
688.22	1.56314
688.409	0.99492
688.598	1.57995
688.787	3.06187
688.976	1.22625
689.165	2.26458
689.353	2.83838
689.542	1.69731
689.731	2.21739
689.92	2.55879
690.108	2.07723
690.297	2.29636
690.486	1.25975
690.675	2.52916
690.863	1.06945
691.052	2.67279
691.241	2.16151
691.429	2.26668
691.618	1.79856
691.806	1.68727
691.995	2.06698
692.184	3.28664
692.372	1.91735
692.561	1.83901
692.749	3.79386
692.938	3.05611
693.126	2.28846
693.315	2.7437
693.503	3.34599
693.692	0.41186
693.88	2.4126
694.068	1.66599
694.257	2.01377
694.445	2.34301
694.634	1.86178
694.822	1.21973
695.01	2.6245
695.199	3.16887
695.387	2.00004
695.575	2.45899
695.763	3.13665
695.952	2.10086
696.14	2.49931
696.328	2.00876
696.516	2.49851
696.705	2.20117
696.893	2.03684
697.081	2.66581
697.269	3.21579
697.457	2.16965
697.645	2.61078
697.833	2.80954
698.021	3.07312
698.21	2.90148
698.398	2.31477
698.586	2.79138
698.774	0.57149
698.962	2.12012
699.15	1.95841
699.338	2.4562
699.526	1.93149
699.714	1.70075
699.901	1.96704
700.089	1.95148
700.277	2.10893
700.465	1.97762
700.653	3.15806
700.841	2.71633
701.029	1.99591
701.217	1.87389
701.404	2.75146
701.592	2.95205
701.78	3.70331
701.968	1.59156
702.155	2.25841
702.343	2.00804
702.531	3.25418
702.718	4.78058
702.906	1.90363
703.094	1.88475
703.281	3.80484
703.469	2.00615
703.657	3.77617
703.844	2.40053
704.032	2.18702
704.219	3.59944
704.407	2.77326
704.595	2.82464
704.782	2.79051
704.97	3.19179
705.157	2.74975
705.345	3.07353
705.532	4.08886
705.719	2.21916
705.907	1.41233
706.094	2.0407
706.282	1.92316
706.469	4.00084
706.656	2.86371
706.844	4.5953
707.031	1.96441
707.218	2.9596
707.406	4.63805
707.593	2.44473
707.78	1.40718
707.968	3.27975
708.155	3.73595
708.342	4.72287
708.529	3.63039
708.716	3.113
708.904	4.02948
709.091	3.28902
709.278	2.14404
709.465	2.70853
709.652	5.18193
709.839	1.35864
710.026	3.60045
710.213	2.43534
710.4	2.49709
710.587	1.73166
710.774	2.64062
710.961	3.26341
711.148	1.49676
711.335	2.32561
711.522	3.28918
711.709	1.37462
711.896	2.91234
712.083	1.95313
712.27	3.8167
712.457	3.27129
712.644	2.15507
712.831	4.28998
713.017	1.48174
713.204	3.0067
713.391	3.65781
713.578	3.39045
713.765	3.04815
713.951	1.52073
714.138	5.08154
714.325	0.996
714.512	3.7953
714.698	2.02077
714.885	3.90178
715.072	3.23315
715.258	2.04793
715.445	3.92986
715.631	3.96434
715.818	1.68937
716.005	2.66993
716.191	4.84559
716.378	2.4751
716.564	4.83958
716.751	2.28413
716.937	4.18549
717.124	3.10865
717.31	1.9291
717.497	3.72956
717.683	4.42279
717.869	1.68718
718.056	3.18402
718.242	1.61279
718.429	4.13564
718.615	3.98198
718.801	3.6045
718.988	6.59606
719.174	3.49718
719.36	3.14306
719.547	3.10197
719.733	2.49744
719.919	0.05679
720.105	4.77137
720.291	4.10229
720.478	4.95823
720.664	3.26338
720.85	2.12213
721.036	7.29441
721.222	2.74186
721.408	2.94965
721.595	5.73062
721.781	2.14038
721.967	1.8337
722.153	4.14685
722.339	4.35784
722.525	4.92553
722.711	4.90819
722.897	1.58687
723.083	3.79724
723.269	5.16739
723.455	4.44217
723.641	2.32297
723.827	4.72043
724.012	2.77365
724.198	2.72809
724.384	4.64841
724.57	2.5018
724.756	2.36431
724.942	1.77602
725.127	1.94604
725.313	7.05789
725.499	4.32257
725.685	2.70535
725.87	3.48056
726.056	2.38339
726.242	6.72936
726.428	3.24948
726.613	5.58976
726.799	3.80167
726.985	2.97316
727.17	2.6846
727.356	1.13685
727.541	2.40267
727.727	3.72298
727.913	3.60714
728.098	3.03145
728.284	4.01799
728.469	1.13585
728.655	4.04157
728.84	3.54716
729.026	4.22933
729.211	-1.59792
729.397	2.98907
729.582	2.5335
729.767	3.05071
729.953	3.89
730.138	3.32789
730.323	3.08958
730.509	4.26454
730.694	5.01691
730.879	3.27328
731.065	2.55511
731.25	2.56801
731.435	3.6765
731.621	3.04528
731.806	4.08114
731.991	2.02677
732.176	2.52073
732.361	4.67945
732.547	2.54517
732.732	2.14667
732.917	8.57818
733.102	3.33082
733.287	3.40255
733.472	2.99778
733.657	3.88684
733.842	2.3678
734.027	2.35516
734.212	2.55197
734.397	2.20615
734.582	1.32627
734.767	2.10672
734.952	3.52697
735.137	3.20272
735.322	3.04233
735.507	2.58618
735.692	-0.12753
735.877	6.58651
736.062	9.44381
736.247	3.27174
736.431	3.79076
736.616	2.22774
736.801	4.86992
736.986	3.02632
737.171	0.91129
737.355	6.41291
737.54	3.99079
737.725	5.39392
737.909	10.47983
738.094	2.96695
738.279	6.58385
738.463	2.66076
738.648	0.6579
738.833	3.72093
739.017	3.21315
739.202	4.61377
739.386	2.49491
739.571	3.64697
739.756	0.55375
739.94	4.0851
740.125	2.8669
740.309	5.21006
740.494	3.93194
740.678	2.56266
740.863	2.05872
741.047	4.22536
741.231	3.7618
741.416	0.88272
741.6	7.39475
741.785	0.78236
741.969	6.47779
742.153	4.33465
742.338	2.13378
742.522	2.08973
742.706	4.19478
742.89	3.61906
743.075	2.43555
743.259	6.13095
743.443	1.34693
743.627	10.30233
743.812	1.61897
743.996	0.88544
744.18	6.77906
744.364	4.36579
744.548	4.30699
744.732	1.56749
744.916	4.41553
745.1	6.04652
745.285	3.10329
745.469	3.70723
745.653	9.63294
745.837	-0.41247
746.021	1.89361
746.205	3.7113
746.389	3.72484
746.573	-4.4988
746.757	9.42819
746.94	-2.73252
747.124	8.32595
747.308	-1.11996
747.492	8.85228
747.676	0.56071
747.86	9.24361
748.044	5.9711
748.227	-0.17699
748.411	12.49132
748.595	5.06453
748.779	1.6773
748.963	3.60965
749.146	2.95085
749.33	2.70825
749.514	5.18821
749.697	7.23841
749.881	2.22899
750.065	3.18004
750.248	5.3074
750.432	7.6279
750.616	4.21672
750.799	1.13446
750.983	4.09676
751.166	-0.78143
751.35	5.6014
751.533	2.09789
751.717	4.74264
751.9	7.98069
752.084	-0.09236
752.267	2.06192
752.451	2.19209
752.634	1.19863
752.818	0.275
753.001	1.77489
753.184	3.72226
753.368	6.26304
753.551	1.34768
753.734	2.93225
753.918	13.50103
754.101	2.6699
754.284	4.55168
754.467	4.1587
754.651	3.80002
754.834	3.5738
755.017	1.73776
755.2	3.4793
755.384	2.65205
755.567	9.42325
755.75	-3.7972
755.933	3.21108
756.116	4.93605
756.299	7.35471
756.482	4.97766
756.665	1.64399
756.848	0.83251
757.032	0.30417
757.215	-0.9539
757.398	1.62697
757.581	5.50265
757.764	21.76035
757.947	3.43988
758.129	-0.45317
758.312	3.1534
758.495	4.731
758.678	7.24985
758.861	6.3415
759.044	1.2154
759.227	2.46379
759.41	7.17976
759.592	3.22341
759.775	5.59074
759.958	-3.54168
760.141	0.6905
760.324	1.17375
760.506	7.35342
760.689	4.406
760.872	9.63781
761.054	6.22411
761.237	3.54556
761.42	5.18905
761.602	6.45596
761.785	0.55584
761.968	4.09907
762.15	3.44835
762.333	4.5263
762.515	-0.38489
762.698	2.92042
762.88	3.42027
763.063	0.15636
763.245	4.82174
763.428	3.59728
763.61	2.60346
763.793	1.17115
763.975	2.14455
764.158	1.5679
764.34	2.01328
764.522	-0.36715
764.705	0.59245
764.887	4.09269
765.069	0.64954
765.252	4.66316
765.434	2.53288
765.616	6.08483
765.799	1.78302
765.981	4.0035
766.163	-1.89302
766.345	0.93422
766.528	3.26171
766.71	1.92822
766.892	5.84953
767.074	-0.56391
767.256	2.19692
767.438	-2.4547
767.62	3.64254
767.802	12.60346
767.985	8.17464
768.167	-8.80135
768.349	5.7387
768.531	1.88968
768.713	-1.05231
768.895	-0.88013
769.077	0.46503
769.259	11.83379
769.441	2.5623
769.623	4.50992
769.804	-0.78433
769.986	4.12548
770.168	21.56218
770.35	53.05831
770.532	-1.13164
770.714	6.43705
770.896	16.8147
771.077	4.18297
771.259	10.77829
771.441	-7.45711
771.623	9.76117
771.804	-17.71832
771.986	1.45651
772.168	-3.79183
772.35	28.48834
772.531	9.16394
772.713	12.09393
772.894	-182.78151
773.076	13.44632
773.258	3.64794
773.439	17.31805
773.621	-90.52621
773.802	1.22234
773.984	5.91496
774.166	8.45431
774.347	-576.81994
774.529	-0.06174
774.71	7.90414
774.891	0.45402
775.073	1.88835
775.254	-14.09161
775.436	1.02977
775.617	-17.95096
775.799	-9.86188
775.98	-283.57575
776.161	13.05124
776.343	28.38167
776.524	2.58093
776.705	10.35458
776.886	-4.95047
777.068	-5.50533
777.249	-18.57261
777.43	-34.96539
777.611	2.97684
777.793	-6.59686
777.974	25.75122
778.155	1.715
778.336	-11.32121
778.517	-1.94811
778.698	2.26638
778.879	4.996
779.061	-0.75431
779.242	21.84324
779.423	14.84843
779.604	7.25857
779.785	4.63219
779.966	6.34276
780.147	14.83025
780.328	35.08202
780.509	-5.54726
780.69	-17.86069
780.871	5.92045
781.051	1.0098
781.232	6.13553
781.413	-9.58485
781.594	7.29263
781.775	4.30505
781.956	-0.11089
782.137	1.20655
782.317	6.86498
782.498	9.12344
782.679	-3.16011
782.86	12.60943
783.04	7.3707
783.221	13.31414
783.402	-18.04362
783.583	-10.04139
783.763	27.21445
783.944	-4.38748
784.124	5.99527
784.305	13.96833
784.486	-5.61353
784.666	3.0788
784.847	-4.13182
785.027	-5.83194
785.208	2.25001
785.388	7.07906
785.569	0.18185
785.749	2.27433
785.93	-7.27568
786.11	8.12667
786.291	14.80874
786.471	-7.99854
786.652	4.43738
786.832	16.35416
787.012	23.43492
787.193	2.86734
787.373	-1.7598
787.553	4.54906
787.734	9.1233
787.914	2.78344
788.094	-16.91257
788.275	1.87018
788.455	8.07515
788.635	-2.05816
788.815	3.13351
788.995	-1.12882
789.176	3.65038
789.356	5.19182
789.536	4.32185
789.716	-3.15487
789.896	-0.67519
790.076	-3.29478
790.256	20.42725
790.436	-1.15145
790.616	6.47521
790.796	12.73002
790.976	9.60712
791.156	7.09728
791.336	8.54719
791.516	20.88403
791.696	-3.62825
791.876	0.9404
792.056	0.21039
792.236	15.75364
792.416	21.63947
792.596	8.03524
792.776	-3.68072
792.956	15.98321
793.135	-5.41878
793.315	-0.80766
793.495	74.16926
793.675	40.28688
793.854	28.55132
794.034	5.76224
794.214	1.08859
794.394	28.38755
794.573	3.1929
794.753	9.76746
794.933	6.62862
795.112	23.20223
795.292	11.24386
795.472	2.48636
795.651	7.65149
795.831	2.56202
796.01	-3.74035
796.19	-1.01515
796.369	12.19666
796.549	13.46329
796.728	3.42636
796.908	-0.40631
797.087	4.13947
797.267	-0.17919
797.446	8.98057
797.626	-5.9411
797.805	21.86906
797.984	4.9001
798.164	8.70786
798.343	3.29125
798.522	3.59719
798.702	10.0919
798.881	-1.82043
799.06	9.01023
799.239	-0.4833
799.419	3.40164
799.598	-32.37992
799.777	3.03339
799.956	42.69761
800.136	-4.9158
800.315	4.70371
800.494	13.90932
800.673	-2.11707
800.852	-0.78072
801.031	64.38741
801.21	10.20349
801.389	11.05807
801.568	5.1701
801.747	-13.88611
801.926	-10.19436
802.105	2.14952
802.284	3.85103
802.463	-137.12811
802.642	7.90692
802.821	2.22008
803	-130.05366
803.179	14.94071
803.358	-145.2581
803.537	3.70392
803.716	7.77404
803.895	1.40033
804.073	-5.97125
804.252	10.88338
804.431	-10.15059
804.61	10.41249
804.789	97.33075
804.967	-0.92737
805.146	-3.469
805.325	-17.21031
805.503	-6.80099
805.682	-2.55781
805.861	3.73425
806.039	151.35862
806.218	8.18704
806.397	-4.33894
806.575	15.7064
806.754	3.53282
806.932	10.49715
807.111	7.003
807.289	-31.4375
807.468	7.10676
807.646	100.88231
807.825	25.72812
808.003	18.71351
808.182	19.6201
808.36	8.09856
808.539	9.5439
808.717	-41.7644
808.895	16.56285
809.074	-12.09744
809.252	-3.44189
809.43	546.85327
809.609	-57.70499
809.787	9.07913
809.965	8.65376
810.144	6.33873
810.322	9.04829
810.5	35.70671
810.678	21.27619
810.856	-3.02354
811.035	-14.36097
811.213	30.96614
811.391	-82.81243
811.569	-0.9638
811.747	-13.22318
811.925	-117.2597
812.103	9.36677
812.281	13.87628
812.459	4.99925
812.637	-12.45364
812.816	74.76158
812.994	-1.43114
813.171	-71.84534
813.349	-18.58141
813.527	-31.60876
813.705	-24.56493
813.883	3.49419
814.061	-146.51239
814.239	14.9368
814.417	17.18286
814.595	-284.85529
814.773	22.03191
814.95	0.78826
815.128	5.4233
815.306	-46.54957
815.484	3.9536
815.662	8.71632
815.839	-4.57997
816.017	6.80472
816.195	14.87628
816.372	-9.87189
816.55	2107.2505
816.728	-34.12102
816.905	-2.78934
817.083	-13.43836
817.261	0.02919
817.438	6.65791
817.616	-27.35371
817.793	8.87244
817.971	-43.97143
818.148	52.03469
818.326	22.26929
818.503	-41.88997
818.681	-6.96796
818.858	11.69893
819.036	15.97351
819.213	6.77807
819.391	-5.63505
819.568	1.70043
819.745	-2.88745
819.923	32.75325
820.1	-5.12322
820.277	6.66235
820.455	5.89566
820.632	7.85323
820.809	3.89795
820.986	2.92792
821.164	0.24279
821.341	-0.62001
821.518	2.2261
821.695	2.03718
821.872	1.98696
822.05	1.59464
822.227	0.93388
822.404	1.38941
822.581	1.44863
822.758	1.13359
822.935	0.4086
823.112	1.24118
823.289	1.04624
823.466	0.59499
823.643	0.75497
823.82	2.41717
823.997	0.2789
824.174	0.49142
824.351	1.9423
824.528	0.47554
824.705	-1.25456
824.882	3.19892
825.059	-2.02272
825.236	-1.05449
825.412	-0.0843
825.589	1.97059
825.766	7.26339
825.943	-0.77136
826.12	1.56988
826.296	3.40374
826.473	1.40915
826.65	1.11631
826.827	2.34393
827.003	0.81804
827.18	0.16957
827.357	0.69292
827.533	1.34612
827.71	0.41294
827.887	0.33633
828.063	1.29783
828.24	0.81138
828.416	1.09149
828.593	0.63406
828.769	0.93875
828.946	7.77001
829.122	0.44486
829.299	6.68032
829.475	-1.97038
829.652	-14.51818
829.828	18.65611
830.005	0.82935
830.181	31.85424
830.357	8.4292
830.534	-348.34698
830.71	-19.13894
830.886	11.24145
831.063	-8.69683
831.239	-2.59629
831.415	5.33071
831.592	6.55861
831.768	-15.25676
831.944	4.32028
832.12	-24.98913
832.296	59.42712
832.473	46.9253
832.649	-5.41936
832.825	-0.63356
833.001	4.20488
833.177	-1.08722
833.353	2.55688
833.529	2.79941
833.705	-2.26742
833.881	0.22548
834.058	-0.77495
834.234	-0.70502
834.41	0.91831
834.586	0.09518
834.761	2.61546
834.937	4.62355
835.113	-0.96968
835.289	2.70693
835.465	-3.6286
835.641	-0.46788
835.817	6.46831
835.993	60.46697
836.169	-3.05342
836.344	-12.46391
836.52	14.84273
836.696	-30.77985
836.872	4.77442
837.048	-1.9562
837.223	2.9232
837.399	-15.83373
837.575	11.17128
837.75	31.4771
837.926	-2.6155
838.102	-6.36683
838.277	-0.90667
838.453	3.2922
838.628	-2.92522
838.804	29.04429
838.98	-8.44139
839.155	69.49639
839.331	-27.01559
839.506	45.00142
839.682	-67.40054
839.857	-20.21522
840.033	-8.71279
840.208	-0.78108
840.384	8.4568
840.559	0.1085
840.734	98.5648
840.91	7.47632
841.085	-57.96986
841.26	143.50937
841.436	108.5913
841.611	-44.35749
841.786	13.54592
841.962	-3.51079
842.137	-23.62808
842.312	-16.33574
842.487	-38.05723
842.663	16.42545
842.838	10.86249
843.013	2.22864
843.188	-13.9065
843.363	7.0284
843.538	-5.69621
843.714	6.23376
843.889	2.11339
844.064	4.42288
844.239	0.12613
844.414	-6.43651
844.589	9.39606
844.764	0.67971
844.939	-4.69459
845.114	-0.06865
845.289	3.92395
845.464	-2.86572
845.639	-0.45051
845.814	-13.91895
845.989	4.53037
846.163	2.6749
846.338	6.86634
846.513	-3.14774
846.688	2.91851
846.863	6.21523
847.038	-3.16035
847.212	-0.32059
847.387	1.73993
847.562	2.71431
847.737	-1.6579
847.911	7.62633
848.086	3.76222
848.261	4.37707
848.435	6.50961
848.61	0.06799
848.785	9.11858
848.959	0.14412
849.134	4.26848
849.308	-1.7958
849.483	7.82376
849.658	-0.39994
849.832	2.85804
850.007	-13.12447
850.181	-2.1199
850.356	4.62907
850.53	0.98488
850.705	23.62792
850.879	-110.71827
851.053	4.09393
851.228	-17.14044
851.402	2.40757
851.577	-2.57088
851.751	-1.61076
851.925	-5.75297
852.099	-15.19233
852.274	1.19324
852.448	-16.86658
852.622	-12.95615
852.797	3.42466
852.971	0.69349
853.145	-1.79672
853.319	-3.29442
853.493	-1.22455
853.668	-3.31328
853.842	4.50571
854.016	0.62683
854.19	0.77299
854.364	7.50137
854.538	-7.83101
854.712	9.84855
854.886	6.17402
855.06	11.78978
855.234	-32.54682
855.408	-3.25298
855.582	1.98159
855.756	-5.50688
855.93	-0.16304
856.104	10.76781
856.278	10.67259
856.452	-8.33338
856.626	-2.58626
856.8	0.42505
856.973	7.95025
857.147	-1.1972
857.321	-6.96989
857.495	-1.14603
857.669	-6.02608
857.842	3.92874
858.016	1.85804
858.19	14.53573
858.364	-2.85649
858.537	-2.56807
858.711	-5.72706
858.885	3.87096
859.058	-7.42931
859.232	-3.32322
859.405	2.06989
859.579	3.23974
859.753	-4.73574
859.926	-5.27452
860.1	32.36958
860.273	5.73909
860.447	4.14025
860.62	-3.06635
860.794	-0.85484
860.967	1.8923
861.141	-4.92853
861.314	4.56291
861.487	1.62353
861.661	1.28929
861.834	1.553
862.008	3.14875
862.181	-11.34335
862.354	-2.51969
862.528	-5.23697
862.701	-10.89829
862.874	6.90336
863.047	-6.7204
863.221	0.97757
863.394	37.01909
863.567	2.78256
863.74	78.54401
863.913	1.80432
864.087	3.43369
864.26	3.56516
864.433	2.56508
864.606	2.4565
864.779	4.39591
864.952	-7.91442
865.125	17.98069
865.298	6.99468
865.471	9.65515
865.644	2.47245
865.817	3.64824
865.99	2.8052
866.163	3.47587
866.336	-2.87516
866.509	8.10587
866.682	10.49811
866.855	0.73653
867.028	0.60563
867.2	-4.3194
867.373	-79.70029
867.546	-0.29549
867.719	-1.48624
867.892	-6.6184
868.064	5.7861
868.237	3.84082
868.41	-3.642
868.583	-100.95211
868.755	13.42333
868.928	6.0883
869.101	-0.19038
869.273	-2.24812
869.446	-2.31698
869.619	-3.38089
869.791	9.62284
869.964	0.93648
870.136	-3.28901
870.309	4.32724
870.481	-1.06133
870.654	-28.02229
870.826	5.39547
870.999	2.86494
871.171	3.17116
871.344	0.24392
871.516	8.15362
871.689	-2.80393
871.861	-2.53498
872.033	8.1477
872.206	11.58289
872.378	3.92055
872.55	7.96012
872.723	-2.44663
872.895	-0.86156
873.067	-1.67776
873.24	1.23891
873.412	-3.71301
873.584	11.09057
873.756	1.67822
873.928	7.96891
874.101	5.97702
874.273	0.04178
874.445	-36.41536
874.617	25.28009
874.789	-12.43086
874.961	-3.78202
875.133	1.29579
875.305	1.15385
875.477	1.12204
875.649	24.8628
875.821	20.5834
875.993	0.61324
876.165	0.25597
876.337	6.10396
876.509	3.18598
876.681	-5.28736
876.853	-5.95692
877.025	-4.5138
877.197	2.39606
877.369	-16.04305
877.541	0.05766
877.712	-260.38651
877.884	-3.19238
878.056	-6.78501
878.228	-30.666
878.4	2.2308
878.571	-3.89585
878.743	-43.82874
878.915	-0.9325
879.086	-0.76755
879.258	-5.48794
879.43	-15.08128
879.601	8.46922
879.773	-6.55908
879.945	-0.06017
880.116	4.35091
880.288	-0.75318
880.459	0.69526
880.631	0.49421
880.802	1.20385
880.974	0.5876
881.145	1.23644
881.317	-0.34913
881.488	1.21092
881.66	1.13505
881.831	0.24915
882.002	2.11959
882.174	1.44818
882.345	1.38673
882.517	0.5757
882.688	0.95509
882.859	-0.18573
883.03	-1.27651
883.202	1.67211
883.373	-0.41488
883.544	-3.59864
883.715	0.72061
883.887	3.09048
884.058	-2.35153
884.229	-16.23655
884.4	1.45279
884.571	11.0844
884.742	-22.6558
884.914	-2.95693
885.085	-9.11229
885.256	1.12512
885.427	32.39621
885.598	5.70882
885.769	-0.41283
885.94	12.07056
886.111	-51.43768
886.282	13.20981
886.453	15.0005
886.624	-34.13806
886.795	3.665
886.966	-5.57015
887.136	5.02493
887.307	-6.5785
887.478	-0.86456
887.649	4.33327
887.82	-4.97895
887.991	8.3137
888.161	1.61249
888.332	2.53915
888.503	-5.60626
888.674	0.20049
888.844	1.44646
889.015	-0.26186
889.186	2.85319
889.356	-0.20321
889.527	38.95292
889.698	1.92092
889.868	17.58862
890.039	-0.52913
890.209	-5.91319
890.38	0.1946
890.551	-1.26818
890.721	2.06163
890.892	-0.17581
891.062	4.62938
891.233	2.41094
891.403	-7.54048
891.574	27.52941
891.744	-9.11441
891.914	-7.60832
892.085	-1.26573
892.255	-53.45144
892.425	2.23914
892.596	1.37785
892.766	6.5348
892.936	-0.92198
893.107	-1.71528
893.277	-15.30304
893.447	-55.45927
893.618	0.45651
893.788	3.21226
893.958	28.68365
894.128	-17.81286
894.298	91.09191
894.468	-3.00451
894.639	0.69751
894.809	-4.51781
894.979	-1.73443
895.149	-3.32532
895.319	3.23178
895.489	-105.99037
895.659	-16.1679
895.829	3.81336
895.999	36.67989
896.169	-12.94934
896.339	-20.37237
896.509	2.34098
896.679	-2.8042
896.849	-4.58378
897.019	3.50623
897.189	1.66204
897.358	0.65849
897.528	-3.0556
897.698	-11.13734
897.868	-1.9794
898.038	2.84397
898.208	-2.43103
898.377	29.49699
898.547	-2.42972
898.717	4.84692
898.886	0.31789
899.056	2.90076
899.226	5.57795
899.395	-1.69387
899.565	4.0365
899.735	3.8314
899.904	0.96177
900.074	7.78008
900.244	2.58971
900.413	3.64782
900.583	-5.83232
900.752	-2.49309
900.922	-2.51945
901.091	-29.55134
901.261	0.02625
901.43	-15.95092
901.599	3.35813
901.769	-1.32093
901.938	3.59869
902.108	-2.58313
902.277	1.18804
902.446	-31.86921
902.616	-20.87468
902.785	7.89417
902.954	0.27778
903.124	2.72355
903.293	-1.01355
903.462	0.66771
903.631	7.49293
903.801	-157.83987
903.97	-2.60496
904.139	5.10529
904.308	7.46051
904.477	8.12108
904.646	2.90083
904.816	-8.38625
904.985	-48.6817
905.154	0.34396
